Blocktype	tnum	rt	color	winprob	Amb	choice	dist	side	response
Ambiguity	0	NA	green	0.5	[0.25,0.75]	Ambiguous	narrow	right	
Ambiguity	1	2372	green	0.6	[0.25,0.75]	risk	narrow	left	f
Ambiguity	2	2290	green	0.55	[0.25,0.75]	risk	narrow	left	f
Ambiguity	3	2230	green	0.49	[0.25,0.75]	Ambiguous	narrow	right	f
Ambiguity	4	2772	green	0.55	[0.25,0.75]	Ambiguous	narrow	right	f
Ambiguity	5	NA	green	0.61	[0.25,0.75]	Ambiguous	narrow	right	
Ambiguity	6	2037	green	0.66	[0.25,0.75]	risk	narrow	right	j
Ambiguity	7	1906	green	0.62	[0.25,0.75]	risk	narrow	right	j
Ambiguity	8	2364	green	0.54	[0.25,0.75]	Ambiguous	narrow	left	j
Ambiguity	9	1883	green	0.56	[0.25,0.75]	Ambiguous	narrow	left	j
Ambiguity	10	1747	green	0.62	[0.25,0.75]	risk	narrow	right	j
Ambiguity	11	2027	green	0.6	[0.25,0.75]	risk	narrow	right	j
Ambiguity	12	NA	green	0.54	[0.25,0.75]	Ambiguous	narrow	right	
Ambiguity	13	3697	green	0.55	[0.25,0.75]	risk	narrow	left	f
Ambiguity	14	1779	green	0.54	[0.25,0.75]	Ambiguous	narrow	right	f
Ambiguity	15	1740	green	0.5	[0,1]	risk	narrow	left	f
Ambiguity	16	1741	green	0.41	[0,1]	risk	narrow	left	f
Ambiguity	17	2312	green	0.26	[0,1]	Ambiguous	narrow	left	j
Ambiguity	18	1519	green	0.33	[0,1]	Ambiguous	narrow	right	f
Ambiguity	19	1742	green	0.42	[0,1]	Ambiguous	narrow	right	f
Ambiguity	20	3048	green	0.56	[0,1]	risk	narrow	left	f
Ambiguity	21	1655	green	0.48	[0,1]	risk	narrow	left	f
Ambiguity	22	1352	green	0.33	[0,1]	risk	narrow	right	j
Ambiguity	23	2264	green	0.12	[0,1]	risk	narrow	left	f
Ambiguity	24	1860	green	0	[0,1]	Ambiguous	narrow	left	j
Ambiguity	25	1453	green	0.11	[0,1]	Ambiguous	narrow	right	f
Ambiguity	26	3261	green	0.33	[0,1]	risk	narrow	right	j
Ambiguity	27	1075	green	0.23	[0,1]	risk	narrow	left	f
Ambiguity	28	2741	green	0.07	[0,1]	Ambiguous	narrow	left	j
Ambiguity	29	862	green	0.13	[0,1]	Ambiguous	narrow	right	f
Ambiguity	30	1981	blue	0.5	[0.25,0.75]	Ambiguous	skew	left	j
Ambiguity	31	1637	blue	0.58	[0.25,0.75]	Ambiguous	skew	left	j
Ambiguity	32	3359	blue	0.71	[0.25,0.75]	risk	skew	right	j
Ambiguity	33	3496	blue	0.63	[0.25,0.75]	Ambiguous	skew	left	j
Ambiguity	34	3774	blue	0.67	[0.25,0.75]	Ambiguous	skew	right	f
Ambiguity	35	1664	blue	0.74	[0.25,0.75]	Ambiguous	skew	right	f
Ambiguity	36	1320	blue	0.81	[0.25,0.75]	risk	skew	right	j
Ambiguity	37	1675	blue	0.78	[0.25,0.75]	risk	skew	right	j
Ambiguity	38	3194	blue	0.7	[0.25,0.75]	Ambiguous	skew	right	f
Ambiguity	39	1886	blue	0.72	[0.25,0.75]	Ambiguous	skew	right	f
Ambiguity	40	1793	blue	0.79	[0.25,0.75]	risk	skew	left	f
Ambiguity	41	4400	blue	0.75	[0.25,0.75]	Ambiguous	skew	left	j
Ambiguity	42	4410	blue	0.74	[0.25,0.75]	risk	skew	right	j
Ambiguity	43	2777	blue	0.74	[0.25,0.75]	Ambiguous	skew	left	j
Ambiguity	44	1651	blue	0.75	[0.25,0.75]	risk	skew	left	f
Ambiguity	45	927	blue	0.5	[0,1]	risk	skew	right	j
Ambiguity	46	1269	blue	0.41	[0,1]	Ambiguous	skew	right	f
Ambiguity	47	2118	blue	0.47	[0,1]	risk	skew	left	f
Ambiguity	48	2086	blue	0.42	[0,1]	risk	skew	right	j
Ambiguity	49	1466	blue	0.36	[0,1]	Ambiguous	skew	right	f
Ambiguity	50	990	blue	0.35	[0,1]	Ambiguous	skew	right	f
Ambiguity	51	2264	blue	0.39	[0,1]	Ambiguous	skew	left	j
Ambiguity	52	1967	blue	0.42	[0,1]	Ambiguous	skew	right	f
Ambiguity	53	1843	blue	0.48	[0,1]	Ambiguous	skew	right	f
Ambiguity	54	1625	blue	0.56	[0,1]	Ambiguous	skew	left	j
Ambiguity	55	1894	blue	0.72	[0,1]	Ambiguous	skew	left	j
Ambiguity	56	3218	blue	0.9	[0,1]	risk	skew	right	j
Ambiguity	57	2538	blue	0.78	[0,1]	risk	skew	right	j
Ambiguity	58	1177	blue	0.6	[0,1]	Ambiguous	skew	right	f
Ambiguity	59	1798	blue	0.68	[0,1]	risk	skew	left	f
Ambiguity	60	1941	red	0.5	[0.25,0.75]	Ambiguous	wide	left	j
Ambiguity	61	1279	red	0.6	[0.25,0.75]	Ambiguous	wide	left	j
Ambiguity	62	2106	red	0.73	[0.25,0.75]	Ambiguous	wide	right	f
Ambiguity	63	2683	red	0.95	[0.25,0.75]	risk	wide	left	f
Ambiguity	64	1521	red	0.85	[0.25,0.75]	risk	wide	left	f
Ambiguity	65	1992	red	0.68	[0.25,0.75]	Ambiguous	wide	left	j
Ambiguity	66	655	red	0.78	[0.25,0.75]	Ambiguous	wide	left	j
Ambiguity	67	1393	red	0.89	[0.25,0.75]	risk	wide	right	j
Ambiguity	68	1299	red	0.82	[0.25,0.75]	risk	wide	right	j
Ambiguity	69	1212	red	0.71	[0.25,0.75]	risk	wide	right	j
Ambiguity	70	1079	red	0.55	[0.25,0.75]	risk	wide	left	f
Ambiguity	71	1350	red	0.35	[0.25,0.75]	Ambiguous	wide	left	j
Ambiguity	72	1114	red	0.46	[0.25,0.75]	Ambiguous	wide	right	f
Ambiguity	73	1372	red	0.62	[0.25,0.75]	Ambiguous	wide	right	f
Ambiguity	74	2696	red	0.86	[0.25,0.75]	risk	wide	left	f
Ambiguity	75	876	red	0.5	[0,1]	Ambiguous	wide	left	j
Ambiguity	76	1829	red	0.57	[0,1]	Ambiguous	wide	right	f
Ambiguity	77	1614	red	0.69	[0,1]	Ambiguous	wide	left	j
Ambiguity	78	1341	red	0.9	[0,1]	risk	wide	left	f
Ambiguity	79	1728	red	0.79	[0,1]	Ambiguous	wide	left	j
Ambiguity	80	1651	red	0.84	[0,1]	risk	wide	left	f
Ambiguity	81	2503	red	0.82	[0,1]	risk	wide	right	j
Ambiguity	82	1431	red	0.77	[0,1]	risk	wide	left	f
Ambiguity	83	1911	red	0.69	[0,1]	Ambiguous	wide	left	j
Ambiguity	84	1282	red	0.69	[0,1]	Ambiguous	wide	left	j
Ambiguity	85	1451	red	0.76	[0,1]	Ambiguous	wide	left	j
Ambiguity	86	1041	red	0.85	[0,1]	risk	wide	left	f
Ambiguity	87	3192	red	0.8	[0,1]	risk	wide	left	f
Ambiguity	88	1206	red	0.74	[0,1]	Ambiguous	wide	left	j
Ambiguity	89	1473	red	0.74	[0,1]	Ambiguous	wide	right	f
