Blocktype	tnum	rt	color	winprob	Amb	RL_feedback	choice	dist	side	response
Learning	1	4433	red	0.5	[0,1]	win	Amb	norm	right	f
Learning	2	1446	red	0.58	[0,1]	win	Amb	norm	left	j
Learning	3	779	red	0.7	[0,1]	win	Amb	norm	right	f
Learning	4	1248	red	0.9	[0,1]	win	risk	norm	right	j
Learning	5	1139	red	0.79	[0,1]	win	risk	norm	left	f
Learning	6	893	red	0.63	[0,1]	win	Amb	norm	right	f
Learning	7	847	red	0.68	[0,1]	win	Amb	norm	left	j
Learning	8	1303	red	0.78	[0,1]	win	risk	norm	right	j
Learning	9	537	red	0.73	[0,1]	win	risk	norm	left	f
Learning	10	945	red	0.64	[0,1]	win	Amb	norm	left	j
Learning	11	1399	red	0.67	[0,1]	win	Amb	norm	right	f
Learning	12	582	red	0.72	[0,1]	win	risk	norm	right	j
Learning	13	739	red	0.68	[0,1]	win	Amb	norm	right	f
Learning	14	1616	red	0.71	[0,1]	win	risk	norm	left	f
Learning	15	860	red	0.68	[0,1]	win	Amb	norm	right	f
Learning	1	1706	green	0.5	[0,1]	win	Amb	norm	right	f
Learning	2	616	green	0.59	[0,1]	win	Amb	norm	right	f
Learning	3	1173	green	0.73	[0,1]	win	risk	norm	left	f
Learning	4	885	green	0.66	[0,1]	win	Amb	norm	right	f
Learning	5	2020	green	0.71	[0,1]	win	Amb	norm	left	j
Learning	6	1057	green	0.79	[0,1]	win	risk	norm	right	j
Learning	7	919	green	0.75	[0,1]	win	risk	norm	right	j
Learning	8	775	green	0.72	[0,1]	win	Amb	norm	right	f
Learning	9	843	green	0.73	[0,1]	win	Amb	norm	left	j
Learning	10	781	green	0.75	[0,1]	win	risk	norm	right	j
Learning	11	623	green	0.74	[0,1]	win	Amb	norm	right	f
Learning	12	588	green	0.75	[0,1]	win	risk	norm	right	j
Learning	13	439	green	0.75	[0,1]	win	risk	norm	right	j
Learning	14	917	green	0.72	[0,1]	win	Amb	norm	left	j
Learning	15	1260	green	0.7	[0,1]	win	risk	norm	left	f
Learning	1	1113	red	0.5	[0,1]	lose	risk	norm	right	j
Learning	2	489	red	0.4	[0,1]	lose	risk	norm	right	j
Learning	3	503	red	0.24	[0,1]	lose	risk	norm	left	f
Learning	4	1406	red	0.01	[0,1]	lose	Amb	norm	left	j
Learning	5	754	red	0.11	[0,1]	lose	Amb	norm	right	f
Learning	6	1130	red	0.3	[0,1]	lose	risk	norm	right	j
Learning	7	828	red	0.21	[0,1]	lose	risk	norm	right	j
Learning	8	1023	red	0.07	[0,1]	lose	Amb	norm	left	j
Learning	9	1280	red	0.14	[0,1]	lose	risk	norm	right	j
Learning	10	664	red	0.12	[0,1]	lose	risk	norm	left	f
Learning	11	1169	red	0.07	[0,1]	lose	Amb	norm	left	j
Learning	12	1534	red	0.1	[0,1]	lose	Amb	norm	right	f
Learning	13	1902	red	0.11	[0,1]	lose	Amb	norm	left	j
Learning	14	1123	red	0.15	[0,1]	lose	risk	norm	left	f
Learning	15	517	red	0.13	[0,1]	lose	risk	norm	left	f
Learning	1	1964	blue	0.5	[0,1]	win	risk	norm	right	j
Learning	2	542	blue	0.39	[0,1]	win	Amb	norm	right	f
Learning	3	998	blue	0.42	[0,1]	win	Amb	norm	left	j
Learning	4	1256	blue	0.48	[0,1]	win	Amb	norm	left	j
Learning	5	1077	blue	0.61	[0,1]	win	risk	norm	right	j
Learning	6	941	blue	0.55	[0,1]	win	Amb	norm	left	j
Learning	7	1216	blue	0.58	[0,1]	win	Amb	norm	right	f
Learning	8	1198	blue	0.59	[0,1]	win	Amb	norm	right	f
Learning	9	1116	blue	0.62	[0,1]	win	risk	norm	left	f
Learning	10	689	blue	0.6	[0,1]	win	risk	norm	right	j
Learning	11	739	blue	0.55	[0,1]	win	Amb	norm	right	f
Learning	12	733	blue	0.57	[0,1]	win	Amb	norm	right	f
Learning	13	619	blue	0.58	[0,1]	win	Amb	norm	right	f
Learning	14	634	blue	0.64	[0,1]	win	risk	norm	right	j
Learning	15	996	blue	0.61	[0,1]	win	risk	norm	left	f
Learning	1	752	blue	0.5	[0,1]	lose	risk	norm	left	f
Learning	2	613	blue	0.39	[0,1]	lose	risk	norm	right	j
Learning	3	361	blue	0.22	[0,1]	lose	risk	norm	left	f
Learning	4	452	blue	0	[0,1]	lose	risk	norm	left	f
Learning	5	940	blue	0	[0,1]	lose	Amb	norm	right	f
Learning	6	2552	blue	0.16	[0,1]	lose	risk	norm	right	j
Learning	7	740	blue	0.08	[0,1]	lose	risk	norm	left	f
Learning	8	986	blue	0	[0,1]	lose	Amb	norm	left	j
Learning	9	1366	blue	0.05	[0,1]	lose	risk	norm	left	f
Learning	10	1275	blue	0.01	[0,1]	lose	risk	norm	right	j
Learning	11	1558	blue	0	[0,1]	lose	Amb	norm	left	j
Learning	12	1344	blue	0.03	[0,1]	lose	risk	norm	right	j
Learning	13	636	blue	0.02	[0,1]	lose	risk	norm	left	f
Learning	14	537	blue	0	[0,1]	lose	risk	norm	right	j
Learning	15	763	blue	0	[0,1]	lose	Amb	norm	left	j
Learning	1	967	green	0.5	[0,1]	lose	risk	norm	right	j
Learning	2	680	green	0.41	[0,1]	lose	risk	norm	right	j
Learning	3	2829	green	0.26	[0,1]	lose	Amb	norm	left	j
Learning	4	962	green	0.34	[0,1]	lose	Amb	norm	left	j
Learning	5	1000	green	0.45	[0,1]	lose	Amb	norm	left	j
Learning	6	858	green	0.63	[0,1]	lose	risk	norm	right	j
Learning	7	2242	green	0.56	[0,1]	lose	risk	norm	right	j
Learning	8	1933	green	0.44	[0,1]	lose	risk	norm	right	j
Learning	9	557	green	0.25	[0,1]	lose	Amb	norm	right	f
Learning	10	979	green	0.36	[0,1]	lose	risk	norm	left	f
Learning	11	663	green	0.29	[0,1]	lose	risk	norm	left	f
Learning	12	568	green	0.22	[0,1]	lose	risk	norm	left	f
Learning	13	1082	green	0.12	[0,1]	lose	risk	norm	right	j
Learning	14	1216	green	0	[0,1]	lose	Amb	norm	right	f
Learning	15	2906	green	0.07	[0,1]	lose	risk	norm	right	j
