Blocktype	tnum	rt	color	winprob	Amb	choice	dist	side	response
Ambiguity	0	4215	green	0.5	[0.25,0.75]	Ambiguous	narrow	right	f
Ambiguity	1	1477	green	0.57	[0.25,0.75]	Ambiguous	narrow	right	f
Ambiguity	2	1738	green	0.74	[0.25,0.75]	risk	narrow	left	f
Ambiguity	3	1480	green	0.67	[0.25,0.75]	risk	narrow	right	j
Ambiguity	4	1276	green	0.55	[0.25,0.75]	risk	narrow	left	f
Ambiguity	5	1886	green	0.39	[0.25,0.75]	Ambiguous	narrow	left	j
Ambiguity	6	2195	green	0.45	[0.25,0.75]	risk	narrow	left	f
Ambiguity	7	961	green	0.42	[0.25,0.75]	risk	narrow	left	f
Ambiguity	8	1914	green	0.35	[0.25,0.75]	Ambiguous	narrow	right	f
Ambiguity	9	1401	green	0.37	[0.25,0.75]	Ambiguous	narrow	left	j
Ambiguity	10	2445	green	0.4	[0.25,0.75]	Ambiguous	narrow	left	j
Ambiguity	11	3520	green	0.44	[0.25,0.75]	Ambiguous	narrow	left	j
Ambiguity	12	1943	green	0.57	[0.25,0.75]	risk	narrow	right	j
Ambiguity	13	770	green	0.51	[0.25,0.75]	risk	narrow	left	f
Ambiguity	14	1299	green	0.44	[0.25,0.75]	Ambiguous	narrow	left	j
Ambiguity	15	1325	green	0.5	[0,1]	risk	narrow	right	j
Ambiguity	16	1166	green	0.38	[0,1]	risk	narrow	right	j
Ambiguity	17	1535	green	0.22	[0,1]	risk	narrow	left	f
Ambiguity	18	1654	green	0	[0,1]	Ambiguous	narrow	left	j
Ambiguity	19	1659	green	0.12	[0,1]	Ambiguous	narrow	right	f
Ambiguity	20	951	green	0.31	[0,1]	risk	narrow	right	j
Ambiguity	21	4131	green	0.24	[0,1]	risk	narrow	right	j
Ambiguity	22	1183	green	0.12	[0,1]	Ambiguous	narrow	left	j
Ambiguity	23	1232	green	0.16	[0,1]	Ambiguous	narrow	right	f
Ambiguity	24	731	green	0.24	[0,1]	risk	narrow	left	f
Ambiguity	25	637	green	0.17	[0,1]	risk	narrow	left	f
Ambiguity	26	1158	green	0.11	[0,1]	Ambiguous	narrow	right	f
Ambiguity	27	1215	green	0.13	[0,1]	Ambiguous	narrow	left	j
Ambiguity	28	832	green	0.16	[0,1]	risk	narrow	left	f
Ambiguity	29	1355	green	0.13	[0,1]	risk	narrow	right	j
Ambiguity	30	1210	red	0.5	[0.25,0.75]	risk	wide	right	j
Ambiguity	31	1852	red	0.38	[0.25,0.75]	risk	wide	left	f
Ambiguity	32	1669	red	0.23	[0.25,0.75]	Ambiguous	wide	right	f
Ambiguity	33	1153	red	0.28	[0.25,0.75]	Ambiguous	wide	right	f
Ambiguity	34	1673	red	0.4	[0.25,0.75]	Ambiguous	wide	right	f
Ambiguity	35	1124	red	0.58	[0.25,0.75]	risk	wide	left	f
Ambiguity	36	1015	red	0.5	[0.25,0.75]	risk	wide	right	j
Ambiguity	37	1701	red	0.36	[0.25,0.75]	Ambiguous	wide	right	f
Ambiguity	38	1292	red	0.39	[0.25,0.75]	Ambiguous	wide	right	f
Ambiguity	39	2357	red	0.45	[0.25,0.75]	risk	wide	left	f
Ambiguity	40	2605	red	0.41	[0.25,0.75]	risk	wide	right	j
Ambiguity	41	1080	red	0.32	[0.25,0.75]	Ambiguous	wide	right	f
Ambiguity	42	866	red	0.38	[0.25,0.75]	Ambiguous	wide	right	f
Ambiguity	43	1122	red	0.43	[0.25,0.75]	risk	wide	right	j
Ambiguity	44	914	red	0.4	[0.25,0.75]	risk	wide	left	f
Ambiguity	45	769	red	0.5	[0,1]	risk	wide	right	j
Ambiguity	46	1332	red	0.39	[0,1]	risk	wide	right	j
Ambiguity	47	872	red	0.22	[0,1]	risk	wide	left	f
Ambiguity	48	816	red	0	[0,1]	Ambiguous	wide	left	j
Ambiguity	49	3547	red	0.08	[0,1]	Ambiguous	wide	right	f
Ambiguity	50	1663	red	0.24	[0,1]	risk	wide	right	j
Ambiguity	51	1248	red	0.16	[0,1]	Ambiguous	wide	left	j
Ambiguity	52	1112	red	0.22	[0,1]	risk	wide	left	f
Ambiguity	53	1007	red	0.18	[0,1]	Ambiguous	wide	right	f
Ambiguity	54	1737	red	0.2	[0,1]	Ambiguous	wide	right	f
Ambiguity	55	1966	red	0.22	[0,1]	Ambiguous	wide	left	j
Ambiguity	56	623	red	0.23	[0,1]	Ambiguous	wide	left	j
Ambiguity	57	756	red	0.24	[0,1]	Ambiguous	wide	left	j
Ambiguity	58	1209	red	0.31	[0,1]	Ambiguous	wide	right	f
Ambiguity	59	647	red	0.41	[0,1]	risk	wide	right	j
Ambiguity	60	1286	blue	0.5	[0.25,0.75]	risk	skew	right	j
Ambiguity	61	1841	blue	0.38	[0.25,0.75]	risk	skew	left	f
Ambiguity	62	1355	blue	0.22	[0.25,0.75]	Ambiguous	skew	right	f
Ambiguity	63	738	blue	0.27	[0.25,0.75]	Ambiguous	skew	right	f
Ambiguity	64	835	blue	0.37	[0.25,0.75]	risk	skew	right	j
Ambiguity	65	1193	blue	0.31	[0.25,0.75]	Ambiguous	skew	right	f
Ambiguity	66	2234	blue	0.32	[0.25,0.75]	Ambiguous	skew	right	f
Ambiguity	67	1688	blue	0.35	[0.25,0.75]	Ambiguous	skew	left	j
Ambiguity	68	1055	blue	0.38	[0.25,0.75]	Ambiguous	skew	left	j
Ambiguity	69	785	blue	0.47	[0.25,0.75]	risk	skew	right	j
Ambiguity	70	605	blue	0.4	[0.25,0.75]	risk	skew	right	j
Ambiguity	71	801	blue	0.31	[0.25,0.75]	Ambiguous	skew	right	f
Ambiguity	72	1723	blue	0.32	[0.25,0.75]	Ambiguous	skew	left	j
Ambiguity	73	828	blue	0.38	[0.25,0.75]	risk	skew	left	f
Ambiguity	74	1499	blue	0.34	[0.25,0.75]	risk	skew	left	f
Ambiguity	75	658	blue	0.5	[0,1]	risk	skew	left	f
Ambiguity	76	928	blue	0.39	[0,1]	risk	skew	right	j
Ambiguity	77	1063	blue	0.23	[0,1]	Ambiguous	skew	left	j
Ambiguity	78	1597	blue	0.29	[0,1]	risk	skew	right	j
Ambiguity	79	2300	blue	0.26	[0,1]	Ambiguous	skew	left	j
Ambiguity	80	819	blue	0.3	[0,1]	risk	skew	right	j
Ambiguity	81	NA	blue	0.28	[0,1]	Ambiguous	skew	left	
Ambiguity	82	1706	blue	0.26	[0,1]	risk	skew	right	j
Ambiguity	83	934	blue	0.24	[0,1]	risk	skew	right	j
Ambiguity	84	1050	blue	0.24	[0,1]	risk	skew	right	j
Ambiguity	85	645	blue	0.22	[0,1]	risk	skew	right	j
Ambiguity	86	756	blue	0.22	[0,1]	risk	skew	right	j
Ambiguity	87	752	blue	0.2	[0,1]	Ambiguous	skew	left	j
Ambiguity	88	1089	blue	0.19	[0,1]	Ambiguous	skew	right	f
Ambiguity	89	645	blue	0.2	[0,1]	Ambiguous	skew	right	f
