Blocktype	tnum	rt	color	winprob	Amb	RL_feedback	choice	dist	side	response
Learning	1	3400	blue	0.5	[0,1]	win	Amb	norm	left	j
Learning	2	2531	blue	0.58	[0,1]	win	risk	norm	left	f
Learning	3	2089	blue	0.52	[0,1]	win	risk	norm	right	j
Learning	4	2232	blue	0.42	[0,1]	win	Amb	norm	left	j
Learning	5	1598	blue	0.45	[0,1]	win	Amb	norm	left	j
Learning	6	1443	blue	0.52	[0,1]	win	Amb	norm	left	j
Learning	7	1263	blue	0.61	[0,1]	win	Amb	norm	left	j
Learning	8	2052	blue	0.72	[0,1]	win	risk	norm	left	f
Learning	9	1838	blue	0.64	[0,1]	win	Amb	norm	right	f
Learning	10	2082	blue	0.69	[0,1]	win	risk	norm	right	j
Learning	11	1489	blue	0.66	[0,1]	win	risk	norm	right	j
Learning	12	1686	blue	0.63	[0,1]	win	Amb	norm	left	j
Learning	13	1126	blue	0.63	[0,1]	win	Amb	norm	right	f
Learning	14	1220	blue	0.62	[0,1]	win	Amb	norm	left	j
Learning	15	1218	blue	0.63	[0,1]	win	Amb	norm	right	f
Learning	1	2767	red	0.5	[0,1]	win	Amb	norm	left	j
Learning	2	1611	red	0.62	[0,1]	win	Amb	norm	right	f
Learning	3	831	red	0.75	[0,1]	win	Amb	norm	right	f
Learning	4	1418	red	0.99	[0,1]	win	risk	norm	left	f
Learning	5	1397	red	0.87	[0,1]	win	risk	norm	left	f
Learning	6	1426	red	0.71	[0,1]	win	Amb	norm	right	f
Learning	7	1206	red	0.78	[0,1]	win	risk	norm	right	j
Learning	8	1065	red	0.72	[0,1]	win	Amb	norm	right	f
Learning	9	2550	red	0.72	[0,1]	win	Amb	norm	left	j
Learning	10	1298	red	0.75	[0,1]	win	risk	norm	left	f
Learning	11	1235	red	0.71	[0,1]	win	Amb	norm	right	f
Learning	12	1312	red	0.73	[0,1]	win	risk	norm	left	f
Learning	13	1133	red	0.71	[0,1]	win	Amb	norm	right	f
Learning	14	1429	red	0.69	[0,1]	win	Amb	norm	right	f
Learning	15	1144	red	0.71	[0,1]	win	Amb	norm	right	f
Learning	1	2801	red	0.5	[0,1]	lose	Amb	norm	left	j
Learning	2	1350	red	0.57	[0,1]	lose	Amb	norm	right	f
Learning	3	1335	red	0.72	[0,1]	lose	Amb	norm	left	j
Learning	4	1432	red	0.93	[0,1]	lose	risk	norm	right	j
Learning	5	1265	red	0.82	[0,1]	lose	risk	norm	left	f
Learning	6	1425	red	0.63	[0,1]	lose	Amb	norm	right	f
Learning	7	1455	red	0.69	[0,1]	lose	Amb	norm	left	j
Learning	8	1573	red	0.84	[0,1]	lose	risk	norm	left	f
Learning	9	1512	red	0.78	[0,1]	lose	risk	norm	left	f
Learning	10	1288	red	0.7	[0,1]	lose	Amb	norm	left	j
Learning	11	1180	red	0.76	[0,1]	lose	risk	norm	right	j
Learning	12	984	red	0.73	[0,1]	lose	Amb	norm	right	f
Learning	13	1333	red	0.73	[0,1]	lose	Amb	norm	right	f
Learning	14	1346	red	0.77	[0,1]	lose	risk	norm	left	f
Learning	15	1063	red	0.76	[0,1]	lose	risk	norm	right	j
Learning	1	1891	green	0.5	[0,1]	win	Amb	norm	left	j
Learning	2	1525	green	0.61	[0,1]	win	Amb	norm	right	f
Learning	3	1556	green	0.77	[0,1]	win	risk	norm	right	j
Learning	4	1559	green	0.7	[0,1]	win	Amb	norm	left	j
Learning	5	1290	green	0.71	[0,1]	win	Amb	norm	right	f
Learning	6	954	green	0.79	[0,1]	win	risk	norm	right	j
Learning	7	1730	green	0.77	[0,1]	win	risk	norm	left	f
Learning	8	1154	green	0.72	[0,1]	win	Amb	norm	right	f
Learning	9	1412	green	0.74	[0,1]	win	Amb	norm	left	j
Learning	10	1144	green	0.77	[0,1]	win	risk	norm	left	f
Learning	11	1349	green	0.74	[0,1]	win	Amb	norm	right	f
Learning	12	1102	green	0.74	[0,1]	win	Amb	norm	right	f
Learning	13	1719	green	0.76	[0,1]	win	Amb	norm	left	j
Learning	14	1965	green	0.76	[0,1]	win	Amb	norm	right	f
Learning	15	1708	green	0.78	[0,1]	win	risk	norm	right	j
Learning	1	3086	blue	0.5	[0,1]	lose	Amb	norm	right	f
Learning	2	1267	blue	0.61	[0,1]	lose	Amb	norm	right	f
Learning	3	1505	blue	0.73	[0,1]	lose	Amb	norm	right	f
Learning	4	1157	blue	0.96	[0,1]	lose	risk	norm	right	j
Learning	5	1465	blue	0.85	[0,1]	lose	risk	norm	left	f
Learning	6	1193	blue	0.68	[0,1]	lose	Amb	norm	right	f
Learning	7	2052	blue	0.76	[0,1]	lose	Amb	norm	right	f
Learning	8	1717	blue	0.87	[0,1]	lose	risk	norm	left	f
Learning	9	1729	blue	0.82	[0,1]	lose	risk	norm	right	j
Learning	10	1508	blue	0.71	[0,1]	lose	Amb	norm	left	j
Learning	11	1322	blue	0.75	[0,1]	lose	Amb	norm	left	j
Learning	12	1199	blue	0.82	[0,1]	lose	risk	norm	right	j
Learning	13	1192	blue	0.76	[0,1]	lose	Amb	norm	right	f
Learning	14	897	blue	0.78	[0,1]	lose	risk	norm	right	j
Learning	15	1015	blue	0.75	[0,1]	lose	Amb	norm	right	f
Learning	1	1552	green	0.5	[0,1]	lose	Amb	norm	left	j
Learning	2	1613	green	0.62	[0,1]	lose	Amb	norm	left	j
Learning	3	1319	green	0.74	[0,1]	lose	Amb	norm	left	j
Learning	4	891	green	0.94	[0,1]	lose	risk	norm	right	j
Learning	5	914	green	0.84	[0,1]	lose	risk	norm	right	j
Learning	6	1024	green	0.65	[0,1]	lose	Amb	norm	right	f
Learning	7	1291	green	0.7	[0,1]	lose	Amb	norm	left	j
Learning	8	1175	green	0.83	[0,1]	lose	risk	norm	right	j
Learning	9	1507	green	0.77	[0,1]	lose	risk	norm	left	f
Learning	10	1096	green	0.66	[0,1]	lose	Amb	norm	right	f
Learning	11	1347	green	0.72	[0,1]	lose	Amb	norm	right	f
Learning	12	1289	green	0.77	[0,1]	lose	risk	norm	left	f
Learning	13	954	green	0.72	[0,1]	lose	Amb	norm	left	j
Learning	14	1190	green	0.74	[0,1]	lose	Amb	norm	left	j
Learning	15	1101	green	0.78	[0,1]	lose	risk	norm	right	j
