Blocktype	tnum	rt	color	winprob	Amb	choice	dist	side	response
Ambiguity	0	2911	green	0.5	[0.25,0.75]	risk	narrow	right	j
Ambiguity	1	1997	green	0.41	[0.25,0.75]	Ambiguous	narrow	right	f
Ambiguity	2	2238	green	0.46	[0.25,0.75]	Ambiguous	narrow	right	f
Ambiguity	3	1632	green	0.56	[0.25,0.75]	risk	narrow	left	f
Ambiguity	4	1964	green	0.53	[0.25,0.75]	risk	narrow	left	f
Ambiguity	5	1539	green	0.47	[0.25,0.75]	Ambiguous	narrow	right	f
Ambiguity	6	1025	green	0.48	[0.25,0.75]	Ambiguous	narrow	left	j
Ambiguity	7	1199	green	0.53	[0.25,0.75]	risk	narrow	left	f
Ambiguity	8	1021	green	0.52	[0.25,0.75]	risk	narrow	right	j
Ambiguity	9	970	green	0.48	[0.25,0.75]	Ambiguous	narrow	right	f
Ambiguity	10	1493	green	0.5	[0.25,0.75]	risk	narrow	left	f
Ambiguity	11	950	green	0.5	[0.25,0.75]	risk	narrow	left	f
Ambiguity	12	2069	green	0.5	[0.25,0.75]	risk	narrow	left	f
Ambiguity	13	778	green	0.49	[0.25,0.75]	Ambiguous	narrow	left	j
Ambiguity	14	1586	green	0.51	[0.25,0.75]	risk	narrow	left	f
Ambiguity	15	1095	green	0.5	[0,1]	risk	narrow	right	j
Ambiguity	16	2324	green	0.38	[0,1]	Ambiguous	narrow	right	f
Ambiguity	17	1645	green	0.44	[0,1]	Ambiguous	narrow	right	f
Ambiguity	18	1024	green	0.54	[0,1]	risk	narrow	right	j
Ambiguity	19	862	green	0.51	[0,1]	risk	narrow	left	f
Ambiguity	20	958	green	0.45	[0,1]	Ambiguous	narrow	right	f
Ambiguity	21	1421	green	0.47	[0,1]	Ambiguous	narrow	left	j
Ambiguity	22	1120	green	0.52	[0,1]	risk	narrow	right	j
Ambiguity	23	1235	green	0.5	[0,1]	risk	narrow	left	f
Ambiguity	24	939	green	0.46	[0,1]	Ambiguous	narrow	left	j
Ambiguity	25	1383	green	0.46	[0,1]	Ambiguous	narrow	right	f
Ambiguity	26	719	green	0.47	[0,1]	Ambiguous	narrow	left	j
Ambiguity	27	1818	green	0.51	[0,1]	Ambiguous	narrow	left	j
Ambiguity	28	613	green	0.55	[0,1]	risk	narrow	left	f
Ambiguity	29	942	green	0.52	[0,1]	risk	narrow	right	j
Ambiguity	30	3187	blue	0.5	[0.25,0.75]	Ambiguous	wide	left	j
Ambiguity	31	1071	blue	0.6	[0.25,0.75]	risk	wide	left	f
Ambiguity	32	695	blue	0.56	[0.25,0.75]	risk	wide	right	j
Ambiguity	33	1020	blue	0.48	[0.25,0.75]	Ambiguous	wide	left	j
Ambiguity	34	1235	blue	0.54	[0.25,0.75]	risk	wide	right	j
Ambiguity	35	1145	blue	0.51	[0.25,0.75]	Ambiguous	wide	left	j
Ambiguity	36	1750	blue	0.54	[0.25,0.75]	Ambiguous	wide	right	f
Ambiguity	37	1442	blue	0.55	[0.25,0.75]	Ambiguous	wide	right	f
Ambiguity	38	902	blue	0.55	[0.25,0.75]	Ambiguous	wide	left	j
Ambiguity	39	852	blue	0.57	[0.25,0.75]	Ambiguous	wide	right	f
Ambiguity	40	1767	blue	0.64	[0.25,0.75]	Ambiguous	wide	left	j
Ambiguity	41	608	blue	0.71	[0.25,0.75]	risk	wide	left	f
Ambiguity	42	659	blue	0.66	[0.25,0.75]	Ambiguous	wide	left	j
Ambiguity	43	1028	blue	0.7	[0.25,0.75]	risk	wide	right	j
Ambiguity	44	2482	blue	0.69	[0.25,0.75]	risk	wide	left	f
Ambiguity	45	2595	blue	0.5	[0,1]	Ambiguous	wide	right	f
Ambiguity	46	1246	blue	0.59	[0,1]	Ambiguous	wide	right	f
Ambiguity	47	1139	blue	0.74	[0,1]	risk	wide	left	f
Ambiguity	48	929	blue	0.65	[0,1]	risk	wide	right	j
Ambiguity	49	902	blue	0.55	[0,1]	Ambiguous	wide	right	f
Ambiguity	50	1166	blue	0.59	[0,1]	Ambiguous	wide	right	f
Ambiguity	51	1216	blue	0.64	[0,1]	Ambiguous	wide	left	j
Ambiguity	52	730	blue	0.77	[0,1]	risk	wide	left	f
Ambiguity	53	643	blue	0.7	[0,1]	risk	wide	left	f
Ambiguity	54	945	blue	0.59	[0,1]	Ambiguous	wide	left	j
Ambiguity	55	918	blue	0.66	[0,1]	Ambiguous	wide	left	j
Ambiguity	56	783	blue	0.73	[0,1]	risk	wide	right	j
Ambiguity	57	1825	blue	0.69	[0,1]	risk	wide	left	f
Ambiguity	58	1053	blue	0.64	[0,1]	Ambiguous	wide	left	j
Ambiguity	59	891	blue	0.65	[0,1]	risk	wide	right	j
Ambiguity	60	1608	red	0.5	[0.25,0.75]	Ambiguous	skew	right	f
Ambiguity	61	1335	red	0.61	[0.25,0.75]	Ambiguous	skew	left	j
Ambiguity	62	1792	red	0.74	[0.25,0.75]	risk	skew	left	f
Ambiguity	63	722	red	0.67	[0.25,0.75]	Ambiguous	skew	left	j
Ambiguity	64	528	red	0.7	[0.25,0.75]	risk	skew	left	f
Ambiguity	65	672	red	0.68	[0.25,0.75]	Ambiguous	skew	left	j
Ambiguity	66	1243	red	0.67	[0.25,0.75]	Ambiguous	skew	right	f
Ambiguity	67	1556	red	0.7	[0.25,0.75]	risk	skew	left	f
Ambiguity	68	2125	red	0.68	[0.25,0.75]	risk	skew	left	f
Ambiguity	69	821	red	0.65	[0.25,0.75]	Ambiguous	skew	left	j
Ambiguity	70	940	red	0.66	[0.25,0.75]	Ambiguous	skew	left	j
Ambiguity	71	735	red	0.66	[0.25,0.75]	risk	skew	left	f
Ambiguity	72	856	red	0.66	[0.25,0.75]	risk	skew	right	j
Ambiguity	73	1240	red	0.65	[0.25,0.75]	risk	skew	right	j
Ambiguity	74	995	red	0.65	[0.25,0.75]	Ambiguous	skew	right	f
Ambiguity	75	1219	red	0.5	[0,1]	Ambiguous	skew	left	j
Ambiguity	76	747	red	0.57	[0,1]	Ambiguous	skew	right	f
Ambiguity	77	539	red	0.7	[0,1]	Ambiguous	skew	right	f
Ambiguity	78	1284	red	0.9	[0,1]	risk	skew	left	f
Ambiguity	79	1043	red	0.79	[0,1]	Ambiguous	skew	left	j
Ambiguity	80	1285	red	0.86	[0,1]	Ambiguous	skew	left	j
Ambiguity	81	719	red	0.94	[0,1]	risk	skew	left	f
Ambiguity	82	528	red	0.91	[0,1]	risk	skew	left	f
Ambiguity	83	929	red	0.83	[0,1]	Ambiguous	skew	right	f
Ambiguity	84	860	red	0.85	[0,1]	risk	skew	right	j
Ambiguity	85	491	red	0.83	[0,1]	risk	skew	right	j
Ambiguity	86	1012	red	0.82	[0,1]	Ambiguous	skew	left	j
Ambiguity	87	922	red	0.83	[0,1]	Ambiguous	skew	left	j
Ambiguity	88	502	red	0.86	[0,1]	risk	skew	left	f
Ambiguity	89	919	red	0.85	[0,1]	risk	skew	right	j
