Blocktype	tnum	rt	color	winprob	Amb	choice	dist	side	response
Ambiguity	0	NA	red	0.5	[0.25,0.75]	Ambiguous	narrow	right	
Ambiguity	1	2141	red	0.57	[0.25,0.75]	risk	narrow	right	j
Ambiguity	2	2348	red	0.5	[0.25,0.75]	risk	narrow	left	f
Ambiguity	3	1738	red	0.4	[0.25,0.75]	Ambiguous	narrow	right	f
Ambiguity	4	2354	red	0.45	[0.25,0.75]	Ambiguous	narrow	left	j
Ambiguity	5	2529	red	0.49	[0.25,0.75]	Ambiguous	narrow	left	j
Ambiguity	6	1450	red	0.56	[0.25,0.75]	risk	narrow	right	j
Ambiguity	7	1480	red	0.52	[0.25,0.75]	risk	narrow	right	j
Ambiguity	8	1393	red	0.45	[0.25,0.75]	Ambiguous	narrow	right	f
Ambiguity	9	1848	red	0.5	[0.25,0.75]	risk	narrow	right	j
Ambiguity	10	1684	red	0.49	[0.25,0.75]	Ambiguous	narrow	left	j
Ambiguity	11	1528	red	0.48	[0.25,0.75]	Ambiguous	narrow	right	f
Ambiguity	12	2761	red	0.49	[0.25,0.75]	Ambiguous	narrow	right	f
Ambiguity	13	1701	red	0.52	[0.25,0.75]	risk	narrow	right	j
Ambiguity	14	1893	red	0.5	[0.25,0.75]	risk	narrow	right	j
Ambiguity	15	1973	red	0.5	[0,1]	risk	narrow	left	f
Ambiguity	16	2694	red	0.4	[0,1]	risk	narrow	left	f
Ambiguity	17	1919	red	0.26	[0,1]	Ambiguous	narrow	left	j
Ambiguity	18	1547	red	0.35	[0,1]	Ambiguous	narrow	right	f
Ambiguity	19	2101	red	0.47	[0,1]	risk	narrow	left	f
Ambiguity	20	2098	red	0.39	[0,1]	Ambiguous	narrow	left	j
Ambiguity	21	1771	red	0.41	[0,1]	Ambiguous	narrow	left	j
Ambiguity	22	1570	red	0.43	[0,1]	risk	narrow	left	f
Ambiguity	23	1764	red	0.41	[0,1]	Ambiguous	narrow	right	f
Ambiguity	24	2505	red	0.4	[0,1]	Ambiguous	narrow	left	j
Ambiguity	25	1736	red	0.41	[0,1]	Ambiguous	narrow	right	f
Ambiguity	26	2039	red	0.41	[0,1]	Ambiguous	narrow	left	j
Ambiguity	27	2925	red	0.42	[0,1]	Ambiguous	narrow	left	j
Ambiguity	28	2599	red	0.48	[0,1]	risk	narrow	left	f
Ambiguity	29	2046	red	0.46	[0,1]	Ambiguous	narrow	right	f
Ambiguity	30	2949	blue	0.5	[0.25,0.75]	Ambiguous	wide	left	j
Ambiguity	31	2757	blue	0.61	[0.25,0.75]	risk	wide	right	j
Ambiguity	32	2885	blue	0.55	[0.25,0.75]	Ambiguous	wide	right	f
Ambiguity	33	1477	blue	0.59	[0.25,0.75]	Ambiguous	wide	left	j
Ambiguity	34	1643	blue	0.64	[0.25,0.75]	Ambiguous	wide	left	j
Ambiguity	35	2052	blue	0.67	[0.25,0.75]	risk	wide	right	j
Ambiguity	36	1944	blue	0.63	[0.25,0.75]	Ambiguous	wide	right	f
Ambiguity	37	1251	blue	0.63	[0.25,0.75]	Ambiguous	wide	right	f
Ambiguity	38	2305	blue	0.64	[0.25,0.75]	Ambiguous	wide	right	f
Ambiguity	39	1918	blue	0.67	[0.25,0.75]	Ambiguous	wide	right	f
Ambiguity	40	2354	blue	0.71	[0.25,0.75]	risk	wide	left	f
Ambiguity	41	2284	blue	0.69	[0.25,0.75]	Ambiguous	wide	right	f
Ambiguity	42	1631	blue	0.72	[0.25,0.75]	risk	wide	right	j
Ambiguity	43	1506	blue	0.72	[0.25,0.75]	risk	wide	left	f
Ambiguity	44	1221	blue	0.72	[0.25,0.75]	risk	wide	left	f
Ambiguity	45	1679	blue	0.5	[0,1]	Ambiguous	wide	left	j
Ambiguity	46	1487	blue	0.62	[0,1]	risk	wide	right	j
Ambiguity	47	1501	blue	0.56	[0,1]	Ambiguous	wide	right	f
Ambiguity	48	1294	blue	0.56	[0,1]	Ambiguous	wide	right	f
Ambiguity	49	1461	blue	0.59	[0,1]	Ambiguous	wide	left	j
Ambiguity	50	1421	blue	0.65	[0,1]	risk	wide	left	f
Ambiguity	51	1581	blue	0.61	[0,1]	risk	wide	right	j
Ambiguity	52	1281	blue	0.58	[0,1]	Ambiguous	wide	left	j
Ambiguity	53	1793	blue	0.58	[0,1]	Ambiguous	wide	left	j
Ambiguity	54	1933	blue	0.6	[0,1]	risk	wide	right	j
Ambiguity	55	1306	blue	0.56	[0,1]	risk	wide	right	j
Ambiguity	56	1469	blue	0.54	[0,1]	Ambiguous	wide	left	j
Ambiguity	57	1445	blue	0.57	[0,1]	Ambiguous	wide	left	j
Ambiguity	58	1720	blue	0.59	[0,1]	risk	wide	right	j
Ambiguity	59	1470	blue	0.57	[0,1]	Ambiguous	wide	right	f
Ambiguity	60	3112	green	0.5	[0.25,0.75]	Ambiguous	skew	right	f
Ambiguity	61	2542	green	0.58	[0.25,0.75]	Ambiguous	skew	left	j
Ambiguity	62	907	green	0.71	[0.25,0.75]	risk	skew	left	f
Ambiguity	63	1674	green	0.65	[0.25,0.75]	risk	skew	right	j
Ambiguity	64	1285	green	0.53	[0.25,0.75]	Ambiguous	skew	left	j
Ambiguity	65	2859	green	0.6	[0.25,0.75]	Ambiguous	skew	left	j
Ambiguity	66	2501	green	0.65	[0.25,0.75]	risk	skew	right	j
Ambiguity	67	1700	green	0.6	[0.25,0.75]	Ambiguous	skew	left	j
Ambiguity	68	1516	green	0.64	[0.25,0.75]	risk	skew	right	j
Ambiguity	69	1387	green	0.63	[0.25,0.75]	risk	skew	left	f
Ambiguity	70	1538	green	0.6	[0.25,0.75]	Ambiguous	skew	right	f
Ambiguity	71	1447	green	0.61	[0.25,0.75]	Ambiguous	skew	right	f
Ambiguity	72	1130	green	0.64	[0.25,0.75]	risk	skew	left	f
Ambiguity	73	1241	green	0.62	[0.25,0.75]	risk	skew	left	f
Ambiguity	74	1464	green	0.6	[0.25,0.75]	Ambiguous	skew	left	j
Ambiguity	75	1272	green	0.5	[0,1]	Ambiguous	skew	left	j
Ambiguity	76	1830	green	0.6	[0,1]	risk	skew	left	f
Ambiguity	77	1476	green	0.53	[0,1]	Ambiguous	skew	right	f
Ambiguity	78	1700	green	0.58	[0,1]	Ambiguous	skew	right	f
Ambiguity	79	1016	green	0.64	[0,1]	risk	skew	left	f
Ambiguity	80	1183	green	0.61	[0,1]	risk	skew	left	f
Ambiguity	81	1401	green	0.59	[0,1]	Ambiguous	skew	right	f
Ambiguity	82	1330	green	0.57	[0,1]	Ambiguous	skew	left	j
Ambiguity	83	1620	green	0.58	[0,1]	Ambiguous	skew	left	j
Ambiguity	84	859	green	0.63	[0,1]	risk	skew	left	f
Ambiguity	85	2248	green	0.61	[0,1]	Ambiguous	skew	right	f
Ambiguity	86	1002	green	0.62	[0,1]	risk	skew	right	j
Ambiguity	87	1116	green	0.61	[0,1]	risk	skew	right	j
Ambiguity	88	1157	green	0.59	[0,1]	Ambiguous	skew	right	f
Ambiguity	89	1324	green	0.61	[0,1]	risk	skew	left	f
