Blocktype	tnum	rt	color	winprob	Amb	choice	dist	side	response
Ambiguity	0	2939	green	0.5	[0.25,0.75]	Ambiguous	narrow	right	f
Ambiguity	1	NA	green	0.61	[0.25,0.75]	Ambiguous	narrow	right	
Ambiguity	2	107	green	0.75	[0.25,0.75]	Ambiguous	narrow	left	j
Ambiguity	3	922	green	0.97	[0.25,0.75]	risk	narrow	right	j
Ambiguity	4	940	green	0.86	[0.25,0.75]	risk	narrow	left	f
Ambiguity	5	1349	green	0.69	[0.25,0.75]	risk	narrow	left	f
Ambiguity	6	1439	green	0.43	[0.25,0.75]	Ambiguous	narrow	right	f
Ambiguity	7	1161	green	0.54	[0.25,0.75]	Ambiguous	narrow	right	f
Ambiguity	8	943	green	0.74	[0.25,0.75]	risk	narrow	left	f
Ambiguity	9	806	green	0.65	[0.25,0.75]	risk	narrow	left	f
Ambiguity	10	1353	green	0.51	[0.25,0.75]	Ambiguous	narrow	right	f
Ambiguity	11	1005	green	0.56	[0.25,0.75]	risk	narrow	left	f
Ambiguity	12	1397	green	0.5	[0.25,0.75]	risk	narrow	left	f
Ambiguity	13	1792	green	0.46	[0.25,0.75]	Ambiguous	narrow	left	j
Ambiguity	14	810	green	0.46	[0.25,0.75]	Ambiguous	narrow	left	j
Ambiguity	15	739	green	0.5	[0,1]	risk	narrow	left	f
Ambiguity	16	816	green	0.41	[0,1]	Ambiguous	narrow	left	j
Ambiguity	17	2564	green	0.48	[0,1]	Ambiguous	narrow	right	f
Ambiguity	18	882	green	0.56	[0,1]	risk	narrow	left	f
Ambiguity	19	655	green	0.53	[0,1]	risk	narrow	left	f
Ambiguity	20	878	green	0.46	[0,1]	Ambiguous	narrow	right	f
Ambiguity	21	552	green	0.51	[0,1]	risk	narrow	left	f
Ambiguity	22	2013	green	0.5	[0,1]	risk	narrow	left	f
Ambiguity	23	1014	green	0.49	[0,1]	Ambiguous	narrow	left	j
Ambiguity	24	672	green	0.5	[0,1]	risk	narrow	left	f
Ambiguity	25	1069	green	0.5	[0,1]	risk	narrow	right	j
Ambiguity	26	810	green	0.5	[0,1]	risk	narrow	left	f
Ambiguity	27	1731	green	0.48	[0,1]	Ambiguous	narrow	right	f
Ambiguity	28	1006	green	0.5	[0,1]	risk	narrow	left	f
Ambiguity	29	782	green	0.49	[0,1]	Ambiguous	narrow	right	f
Ambiguity	30	2433	blue	0.5	[0.25,0.75]	risk	wide	left	f
Ambiguity	31	911	blue	0.41	[0.25,0.75]	Ambiguous	wide	right	f
Ambiguity	32	686	blue	0.48	[0.25,0.75]	Ambiguous	wide	right	f
Ambiguity	33	940	blue	0.53	[0.25,0.75]	Ambiguous	wide	left	j
Ambiguity	34	791	blue	0.63	[0.25,0.75]	risk	wide	left	f
Ambiguity	35	667	blue	0.55	[0.25,0.75]	risk	wide	left	f
Ambiguity	36	841	blue	0.45	[0.25,0.75]	Ambiguous	wide	right	f
Ambiguity	37	936	blue	0.5	[0.25,0.75]	risk	wide	right	j
Ambiguity	38	1046	blue	0.46	[0.25,0.75]	Ambiguous	wide	right	f
Ambiguity	39	1036	blue	0.45	[0.25,0.75]	Ambiguous	wide	right	f
Ambiguity	40	1132	blue	0.48	[0.25,0.75]	Ambiguous	wide	left	j
Ambiguity	41	1378	blue	0.48	[0.25,0.75]	Ambiguous	wide	left	j
Ambiguity	42	687	blue	0.5	[0.25,0.75]	risk	wide	left	f
Ambiguity	43	882	blue	0.46	[0.25,0.75]	Ambiguous	wide	right	f
Ambiguity	44	799	blue	0.44	[0.25,0.75]	Ambiguous	wide	right	f
Ambiguity	45	1427	blue	0.5	[0,1]	risk	wide	right	j
Ambiguity	46	842	blue	0.39	[0,1]	Ambiguous	wide	right	f
Ambiguity	47	890	blue	0.46	[0,1]	Ambiguous	wide	right	f
Ambiguity	48	757	blue	0.54	[0,1]	risk	wide	left	f
Ambiguity	49	774	blue	0.48	[0,1]	Ambiguous	wide	left	j
Ambiguity	50	1124	blue	0.49	[0,1]	Ambiguous	wide	right	f
Ambiguity	51	1197	blue	0.5	[0,1]	risk	wide	right	j
Ambiguity	52	953	blue	0.5	[0,1]	risk	wide	left	f
Ambiguity	53	719	blue	0.48	[0,1]	Ambiguous	wide	left	j
Ambiguity	54	932	blue	0.5	[0,1]	risk	wide	right	j
Ambiguity	55	882	blue	0.49	[0,1]	Ambiguous	wide	left	j
Ambiguity	56	979	blue	0.5	[0,1]	risk	wide	right	j
Ambiguity	57	1016	blue	0.49	[0,1]	Ambiguous	wide	left	j
Ambiguity	58	749	blue	0.48	[0,1]	Ambiguous	wide	right	f
Ambiguity	59	1884	blue	0.47	[0,1]	Ambiguous	wide	right	f
Ambiguity	60	1326	red	0.5	[0.25,0.75]	risk	skew	right	j
Ambiguity	61	628	red	0.4	[0.25,0.75]	Ambiguous	skew	right	f
Ambiguity	62	1003	red	0.43	[0.25,0.75]	Ambiguous	skew	right	f
Ambiguity	63	1128	red	0.48	[0.25,0.75]	Ambiguous	skew	left	j
Ambiguity	64	851	red	0.58	[0.25,0.75]	risk	skew	right	j
Ambiguity	65	850	red	0.5	[0.25,0.75]	risk	skew	right	j
Ambiguity	66	600	red	0.42	[0.25,0.75]	Ambiguous	skew	right	f
Ambiguity	67	640	red	0.43	[0.25,0.75]	Ambiguous	skew	right	f
Ambiguity	68	827	red	0.5	[0.25,0.75]	risk	skew	left	f
Ambiguity	69	672	red	0.47	[0.25,0.75]	Ambiguous	skew	left	j
Ambiguity	70	656	red	0.47	[0.25,0.75]	Ambiguous	skew	left	j
Ambiguity	71	965	red	0.51	[0.25,0.75]	risk	skew	right	j
Ambiguity	72	979	red	0.48	[0.25,0.75]	Ambiguous	skew	right	f
Ambiguity	73	1180	red	0.5	[0.25,0.75]	risk	skew	right	j
Ambiguity	74	693	red	0.5	[0.25,0.75]	risk	skew	right	j
Ambiguity	75	1056	red	0.5	[0,1]	risk	skew	left	f
Ambiguity	76	682	red	0.38	[0,1]	Ambiguous	skew	left	j
Ambiguity	77	530	red	0.42	[0,1]	Ambiguous	skew	left	j
Ambiguity	78	704	red	0.46	[0,1]	Ambiguous	skew	left	j
Ambiguity	79	1070	red	0.57	[0,1]	risk	skew	right	j
Ambiguity	80	927	red	0.5	[0,1]	risk	skew	right	j
Ambiguity	81	585	red	0.43	[0,1]	Ambiguous	skew	right	f
Ambiguity	82	727	red	0.49	[0,1]	Ambiguous	skew	right	f
Ambiguity	83	477	red	0.57	[0,1]	risk	skew	left	f
Ambiguity	84	611	red	0.53	[0,1]	risk	skew	left	f
Ambiguity	85	816	red	0.48	[0,1]	Ambiguous	skew	left	j
Ambiguity	86	609	red	0.48	[0,1]	Ambiguous	skew	left	j
Ambiguity	87	1012	red	0.5	[0,1]	risk	skew	right	j
Ambiguity	88	691	red	0.47	[0,1]	Ambiguous	skew	left	j
Ambiguity	89	626	red	0.49	[0,1]	Ambiguous	skew	left	j
