Blocktype	tnum	rt	color	winprob	Amb	choice	dist	side	response
Ambiguity	0	1238	red	0.5	[0.25,0.75]	risk	narrow	right	j
Ambiguity	1	1829	red	0.41	[0.25,0.75]	risk	narrow	right	j
Ambiguity	2	1405	red	0.25	[0.25,0.75]	Ambiguous	narrow	left	j
Ambiguity	3	1376	red	0.33	[0.25,0.75]	Ambiguous	narrow	left	j
Ambiguity	4	781	red	0.41	[0.25,0.75]	Ambiguous	narrow	left	j
Ambiguity	5	735	red	0.55	[0.25,0.75]	risk	narrow	left	f
Ambiguity	6	1107	red	0.47	[0.25,0.75]	Ambiguous	narrow	left	j
Ambiguity	7	899	red	0.53	[0.25,0.75]	risk	narrow	left	f
Ambiguity	8	991	red	0.49	[0.25,0.75]	risk	narrow	right	j
Ambiguity	9	955	red	0.46	[0.25,0.75]	risk	narrow	right	j
Ambiguity	10	713	red	0.41	[0.25,0.75]	risk	narrow	right	j
Ambiguity	11	1048	red	0.35	[0.25,0.75]	Ambiguous	narrow	left	j
Ambiguity	12	1382	red	0.37	[0.25,0.75]	Ambiguous	narrow	right	f
Ambiguity	13	908	red	0.42	[0.25,0.75]	risk	narrow	right	j
Ambiguity	14	958	red	0.39	[0.25,0.75]	risk	narrow	left	f
Ambiguity	15	751	red	0.5	[0,1]	risk	narrow	right	j
Ambiguity	16	813	red	0.4	[0,1]	risk	narrow	left	f
Ambiguity	17	1094	red	0.25	[0,1]	risk	narrow	left	f
Ambiguity	18	988	red	0.02	[0,1]	Ambiguous	narrow	left	j
Ambiguity	19	1236	red	0.15	[0,1]	risk	narrow	right	j
Ambiguity	20	1116	red	0.09	[0,1]	Ambiguous	narrow	left	j
Ambiguity	21	1107	red	0.14	[0,1]	risk	narrow	right	j
Ambiguity	22	1114	red	0.12	[0,1]	Ambiguous	narrow	left	j
Ambiguity	23	869	red	0.13	[0,1]	Ambiguous	narrow	left	j
Ambiguity	24	1214	red	0.14	[0,1]	risk	narrow	right	j
Ambiguity	25	990	red	0.13	[0,1]	Ambiguous	narrow	right	f
Ambiguity	26	916	red	0.14	[0,1]	risk	narrow	right	j
Ambiguity	27	1224	red	0.14	[0,1]	Ambiguous	narrow	left	j
Ambiguity	28	782	red	0.14	[0,1]	Ambiguous	narrow	left	j
Ambiguity	29	1107	red	0.13	[0,1]	Ambiguous	narrow	right	f
Ambiguity	30	2599	green	0.5	[0.25,0.75]	risk	wide	left	f
Ambiguity	31	1431	green	0.4	[0.25,0.75]	Ambiguous	wide	right	f
Ambiguity	32	1065	green	0.43	[0.25,0.75]	Ambiguous	wide	left	j
Ambiguity	33	755	green	0.51	[0.25,0.75]	Ambiguous	wide	left	j
Ambiguity	34	1412	green	0.61	[0.25,0.75]	Ambiguous	wide	right	f
Ambiguity	35	942	green	0.8	[0.25,0.75]	Ambiguous	wide	left	j
Ambiguity	36	536	green	1	[0.25,0.75]	Ambiguous	wide	left	j
Ambiguity	37	829	green	1	[0.25,0.75]	risk	wide	left	f
Ambiguity	38	1086	green	0.79	[0.25,0.75]	risk	wide	left	f
Ambiguity	39	1578	green	0.51	[0.25,0.75]	Ambiguous	wide	right	f
Ambiguity	40	1095	green	0.62	[0.25,0.75]	risk	wide	left	f
Ambiguity	41	834	green	0.53	[0.25,0.75]	risk	wide	left	f
Ambiguity	42	1110	green	0.43	[0.25,0.75]	Ambiguous	wide	right	f
Ambiguity	43	1256	green	0.46	[0.25,0.75]	Ambiguous	wide	left	j
Ambiguity	44	895	green	0.56	[0.25,0.75]	risk	wide	left	f
Ambiguity	45	746	green	0.5	[0,1]	risk	wide	left	f
Ambiguity	46	1306	green	0.4	[0,1]	Ambiguous	wide	right	f
Ambiguity	47	1102	green	0.45	[0,1]	risk	wide	right	j
Ambiguity	48	885	green	0.4	[0,1]	risk	wide	left	f
Ambiguity	49	1550	green	0.35	[0,1]	Ambiguous	wide	left	j
Ambiguity	50	1091	green	0.35	[0,1]	risk	wide	right	j
Ambiguity	51	1163	green	0.35	[0,1]	Ambiguous	wide	left	j
Ambiguity	52	1336	green	0.34	[0,1]	Ambiguous	wide	left	j
Ambiguity	53	1390	green	0.37	[0,1]	risk	wide	right	j
Ambiguity	54	1016	green	0.35	[0,1]	risk	wide	left	f
Ambiguity	55	1727	green	0.33	[0,1]	Ambiguous	wide	left	j
Ambiguity	56	742	green	0.33	[0,1]	risk	wide	left	f
Ambiguity	57	725	green	0.31	[0,1]	risk	wide	left	f
Ambiguity	58	842	green	0.31	[0,1]	risk	wide	right	j
Ambiguity	59	756	green	0.32	[0,1]	risk	wide	left	f
Ambiguity	60	1887	blue	0.5	[0.25,0.75]	Ambiguous	skew	right	f
Ambiguity	61	1165	blue	0.6	[0.25,0.75]	Ambiguous	skew	left	j
Ambiguity	62	1168	blue	0.72	[0.25,0.75]	risk	skew	right	j
Ambiguity	63	1235	blue	0.65	[0.25,0.75]	risk	skew	right	j
Ambiguity	64	1404	blue	0.55	[0.25,0.75]	Ambiguous	skew	left	j
Ambiguity	65	1129	blue	0.63	[0.25,0.75]	risk	skew	right	j
Ambiguity	66	1306	blue	0.61	[0.25,0.75]	Ambiguous	skew	right	f
Ambiguity	67	934	blue	0.63	[0.25,0.75]	Ambiguous	skew	left	j
Ambiguity	68	1296	blue	0.62	[0.25,0.75]	Ambiguous	skew	right	f
Ambiguity	69	1323	blue	0.64	[0.25,0.75]	risk	skew	right	j
Ambiguity	70	931	blue	0.61	[0.25,0.75]	risk	skew	right	j
Ambiguity	71	1379	blue	0.59	[0.25,0.75]	Ambiguous	skew	left	j
Ambiguity	72	1210	blue	0.6	[0.25,0.75]	risk	skew	right	j
Ambiguity	73	1057	blue	0.57	[0.25,0.75]	risk	skew	right	j
Ambiguity	74	1192	blue	0.54	[0.25,0.75]	Ambiguous	skew	left	j
Ambiguity	75	1259	blue	0.5	[0,1]	risk	skew	left	f
Ambiguity	76	1310	blue	0.38	[0,1]	risk	skew	right	j
Ambiguity	77	1735	blue	0.21	[0,1]	Ambiguous	skew	left	j
Ambiguity	78	835	blue	0.26	[0,1]	Ambiguous	skew	left	j
Ambiguity	79	569	blue	0.36	[0,1]	Ambiguous	skew	left	j
Ambiguity	80	884	blue	0.53	[0,1]	risk	skew	right	j
Ambiguity	81	972	blue	0.43	[0,1]	Ambiguous	skew	right	f
Ambiguity	82	1027	blue	0.48	[0,1]	Ambiguous	skew	left	j
Ambiguity	83	919	blue	0.55	[0,1]	risk	skew	left	f
Ambiguity	84	828	blue	0.5	[0,1]	risk	skew	right	j
Ambiguity	85	621	blue	0.44	[0,1]	risk	skew	left	f
Ambiguity	86	1098	blue	0.36	[0,1]	Ambiguous	skew	left	j
Ambiguity	87	764	blue	0.42	[0,1]	Ambiguous	skew	left	j
Ambiguity	88	716	blue	0.47	[0,1]	Ambiguous	skew	left	j
Ambiguity	89	1012	blue	0.56	[0,1]	Ambiguous	skew	left	j
