Blocktype	tnum	rt	color	winprob	Amb	choice	dist	side	response
Ambiguity	0	NA	green	0.5	[0.25,0.75]	Ambiguous	skew	left	
Ambiguity	1	121	green	0.62	[0.25,0.75]	risk	skew	right	j
Ambiguity	2	2462	green	0.57	[0.25,0.75]	risk	skew	right	j
Ambiguity	3	2645	green	0.49	[0.25,0.75]	Ambiguous	skew	left	j
Ambiguity	4	2227	green	0.55	[0.25,0.75]	risk	skew	right	j
Ambiguity	5	1522	green	0.51	[0.25,0.75]	Ambiguous	skew	right	f
Ambiguity	6	2054	green	0.52	[0.25,0.75]	Ambiguous	skew	right	f
Ambiguity	7	1337	green	0.53	[0.25,0.75]	risk	skew	left	f
Ambiguity	8	2735	green	0.5	[0.25,0.75]	Ambiguous	skew	right	f
Ambiguity	9	1887	green	0.49	[0.25,0.75]	Ambiguous	skew	left	j
Ambiguity	10	1072	green	0.51	[0.25,0.75]	Ambiguous	skew	right	f
Ambiguity	11	1090	green	0.54	[0.25,0.75]	risk	skew	right	j
Ambiguity	12	1212	green	0.52	[0.25,0.75]	Ambiguous	skew	right	f
Ambiguity	13	872	green	0.49	[0.25,0.75]	Ambiguous	skew	left	j
Ambiguity	14	645	green	0.51	[0.25,0.75]	Ambiguous	skew	left	j
Ambiguity	15	1742	green	0.5	[0,1]	Ambiguous	skew	left	j
Ambiguity	16	864	green	0.58	[0,1]	Ambiguous	skew	right	f
Ambiguity	17	977	green	0.71	[0,1]	risk	skew	right	j
Ambiguity	18	1144	green	0.63	[0,1]	Ambiguous	skew	left	j
Ambiguity	19	1007	green	0.64	[0,1]	risk	skew	left	f
Ambiguity	20	2344	green	0.6	[0,1]	risk	skew	left	f
Ambiguity	21	1034	green	0.55	[0,1]	Ambiguous	skew	left	j
Ambiguity	22	1011	green	0.58	[0,1]	Ambiguous	skew	left	j
Ambiguity	23	992	green	0.6	[0,1]	risk	skew	right	j
Ambiguity	24	1007	green	0.59	[0,1]	Ambiguous	skew	right	f
Ambiguity	25	865	green	0.6	[0,1]	risk	skew	right	j
Ambiguity	26	689	green	0.59	[0,1]	Ambiguous	skew	right	f
Ambiguity	27	816	green	0.56	[0,1]	Ambiguous	skew	left	j
Ambiguity	28	798	green	0.53	[0,1]	Ambiguous	skew	right	f
Ambiguity	29	578	green	0.51	[0,1]	Ambiguous	skew	right	f
Ambiguity	30	3625	red	0.5	[0.25,0.75]	risk	narrow	right	j
Ambiguity	31	1483	red	0.38	[0.25,0.75]	Ambiguous	narrow	left	j
Ambiguity	32	755	red	0.42	[0.25,0.75]	Ambiguous	narrow	left	j
Ambiguity	33	1221	red	0.49	[0.25,0.75]	Ambiguous	narrow	right	f
Ambiguity	34	1451	red	0.6	[0.25,0.75]	risk	narrow	right	j
Ambiguity	35	943	red	0.53	[0.25,0.75]	risk	narrow	right	j
Ambiguity	36	1215	red	0.45	[0.25,0.75]	Ambiguous	narrow	left	j
Ambiguity	37	899	red	0.46	[0.25,0.75]	Ambiguous	narrow	right	f
Ambiguity	38	848	red	0.49	[0.25,0.75]	Ambiguous	narrow	right	f
Ambiguity	39	1103	red	0.6	[0.25,0.75]	risk	narrow	left	f
Ambiguity	40	636	red	0.55	[0.25,0.75]	risk	narrow	right	j
Ambiguity	41	726	red	0.48	[0.25,0.75]	Ambiguous	narrow	left	j
Ambiguity	42	850	red	0.54	[0.25,0.75]	risk	narrow	right	j
Ambiguity	43	1448	red	0.5	[0.25,0.75]	Ambiguous	narrow	left	j
Ambiguity	44	686	red	0.5	[0.25,0.75]	risk	narrow	left	f
Ambiguity	45	1749	red	0.5	[0,1]	risk	narrow	left	f
Ambiguity	46	918	red	0.38	[0,1]	Ambiguous	narrow	left	j
Ambiguity	47	776	red	0.44	[0,1]	Ambiguous	narrow	right	f
Ambiguity	48	961	red	0.53	[0,1]	risk	narrow	right	j
Ambiguity	49	915	red	0.47	[0,1]	Ambiguous	narrow	right	f
Ambiguity	50	709	red	0.46	[0,1]	Ambiguous	narrow	left	j
Ambiguity	51	650	red	0.49	[0,1]	Ambiguous	narrow	left	j
Ambiguity	52	1451	red	0.5	[0,1]	risk	narrow	left	f
Ambiguity	53	1005	red	0.49	[0,1]	Ambiguous	narrow	left	j
Ambiguity	54	561	red	0.49	[0,1]	Ambiguous	narrow	left	j
Ambiguity	55	845	red	0.53	[0,1]	risk	narrow	right	j
Ambiguity	56	987	red	0.52	[0,1]	risk	narrow	right	j
Ambiguity	57	665	red	0.52	[0,1]	risk	narrow	left	f
Ambiguity	58	654	red	0.49	[0,1]	Ambiguous	narrow	left	j
Ambiguity	59	620	red	0.51	[0,1]	Ambiguous	narrow	right	f
Ambiguity	60	2912	blue	0.5	[0.25,0.75]	Ambiguous	wide	left	j
Ambiguity	61	915	blue	0.57	[0.25,0.75]	risk	wide	left	f
Ambiguity	62	1056	blue	0.53	[0.25,0.75]	Ambiguous	wide	right	f
Ambiguity	63	1228	blue	0.57	[0.25,0.75]	risk	wide	left	f
Ambiguity	64	1202	blue	0.54	[0.25,0.75]	risk	wide	left	f
Ambiguity	65	1553	blue	0.53	[0.25,0.75]	risk	wide	right	j
Ambiguity	66	2132	blue	0.48	[0.25,0.75]	Ambiguous	wide	left	j
Ambiguity	67	1272	blue	0.5	[0.25,0.75]	risk	wide	left	f
Ambiguity	68	723	blue	0.47	[0.25,0.75]	Ambiguous	wide	left	j
Ambiguity	69	963	blue	0.47	[0.25,0.75]	Ambiguous	wide	right	f
Ambiguity	70	656	blue	0.46	[0.25,0.75]	Ambiguous	wide	left	j
Ambiguity	71	698	blue	0.49	[0.25,0.75]	Ambiguous	wide	left	j
Ambiguity	72	866	blue	0.49	[0.25,0.75]	Ambiguous	wide	right	f
Ambiguity	73	686	blue	0.48	[0.25,0.75]	Ambiguous	wide	left	j
Ambiguity	74	749	blue	0.49	[0.25,0.75]	Ambiguous	wide	right	f
Ambiguity	75	905	blue	0.5	[0,1]	Ambiguous	wide	right	f
Ambiguity	76	670	blue	0.58	[0,1]	risk	wide	left	f
Ambiguity	77	678	blue	0.52	[0,1]	risk	wide	right	j
Ambiguity	78	730	blue	0.46	[0,1]	Ambiguous	wide	right	f
Ambiguity	79	759	blue	0.52	[0,1]	risk	wide	left	f
Ambiguity	80	746	blue	0.48	[0,1]	Ambiguous	wide	left	j
Ambiguity	81	861	blue	0.47	[0,1]	Ambiguous	wide	right	f
Ambiguity	82	764	blue	0.49	[0,1]	Ambiguous	wide	left	j
Ambiguity	83	599	blue	0.48	[0,1]	Ambiguous	wide	left	j
Ambiguity	84	1140	blue	0.52	[0,1]	risk	wide	right	j
Ambiguity	85	810	blue	0.48	[0,1]	Ambiguous	wide	right	f
Ambiguity	86	760	blue	0.51	[0,1]	risk	wide	left	f
Ambiguity	87	988	blue	0.5	[0,1]	Ambiguous	wide	right	f
Ambiguity	88	910	blue	0.49	[0,1]	Ambiguous	wide	left	j
Ambiguity	89	660	blue	0.47	[0,1]	Ambiguous	wide	left	j
