Blocktype	tnum	rt	color	winprob	Amb	choice	dist	side	response
Ambiguity	0	1699	blue	0.5	[0.25,0.75]	Ambiguous	narrow	left	j
Ambiguity	1	2235	blue	0.59	[0.25,0.75]	risk	narrow	right	j
Ambiguity	2	1480	blue	0.54	[0.25,0.75]	Ambiguous	narrow	right	f
Ambiguity	3	1030	blue	0.55	[0.25,0.75]	risk	narrow	right	j
Ambiguity	4	1661	blue	0.54	[0.25,0.75]	Ambiguous	narrow	right	f
Ambiguity	5	861	blue	0.57	[0.25,0.75]	risk	narrow	left	f
Ambiguity	6	1160	blue	0.56	[0.25,0.75]	risk	narrow	right	j
Ambiguity	7	1470	blue	0.55	[0.25,0.75]	risk	narrow	left	f
Ambiguity	8	1275	blue	0.55	[0.25,0.75]	risk	narrow	right	j
Ambiguity	9	1522	blue	0.55	[0.25,0.75]	risk	narrow	left	f
Ambiguity	10	1130	blue	0.52	[0.25,0.75]	Ambiguous	narrow	right	f
Ambiguity	11	1308	blue	0.5	[0.25,0.75]	risk	narrow	right	j
Ambiguity	12	1475	blue	0.49	[0.25,0.75]	Ambiguous	narrow	left	j
Ambiguity	13	910	blue	0.5	[0.25,0.75]	risk	narrow	right	j
Ambiguity	14	1406	blue	0.48	[0.25,0.75]	Ambiguous	narrow	left	j
Ambiguity	15	684	blue	0.5	[0,1]	risk	narrow	left	f
Ambiguity	16	1415	blue	0.39	[0,1]	risk	narrow	right	j
Ambiguity	17	1060	blue	0.22	[0,1]	Ambiguous	narrow	right	f
Ambiguity	18	1265	blue	0.28	[0,1]	risk	narrow	left	f
Ambiguity	19	857	blue	0.23	[0,1]	Ambiguous	narrow	right	f
Ambiguity	20	1170	blue	0.24	[0,1]	Ambiguous	narrow	left	j
Ambiguity	21	1090	blue	0.29	[0,1]	Ambiguous	narrow	left	j
Ambiguity	22	726	blue	0.3	[0,1]	Ambiguous	narrow	left	j
Ambiguity	23	1311	blue	0.38	[0,1]	Ambiguous	narrow	right	f
Ambiguity	24	1171	blue	0.47	[0,1]	risk	narrow	right	j
Ambiguity	25	920	blue	0.41	[0,1]	risk	narrow	right	j
Ambiguity	26	1780	blue	0.32	[0,1]	Ambiguous	narrow	right	f
Ambiguity	27	1635	blue	0.36	[0,1]	risk	narrow	left	f
Ambiguity	28	960	blue	0.32	[0,1]	Ambiguous	narrow	right	f
Ambiguity	29	640	blue	0.35	[0,1]	Ambiguous	narrow	left	j
Ambiguity	30	1270	green	0.5	[0.25,0.75]	risk	wide	left	f
Ambiguity	31	2637	green	0.39	[0.25,0.75]	Ambiguous	wide	right	f
Ambiguity	32	1186	green	0.43	[0.25,0.75]	risk	wide	right	j
Ambiguity	33	1120	green	0.38	[0.25,0.75]	Ambiguous	wide	right	f
Ambiguity	34	1405	green	0.38	[0.25,0.75]	risk	wide	right	j
Ambiguity	35	1575	green	0.38	[0.25,0.75]	Ambiguous	wide	right	f
Ambiguity	36	1430	green	0.38	[0.25,0.75]	risk	wide	right	j
Ambiguity	37	1230	green	0.39	[0.25,0.75]	Ambiguous	wide	left	j
Ambiguity	38	1150	green	0.39	[0.25,0.75]	Ambiguous	wide	right	f
Ambiguity	39	661	green	0.37	[0.25,0.75]	risk	wide	right	j
Ambiguity	40	1288	green	0.37	[0.25,0.75]	Ambiguous	wide	left	j
Ambiguity	41	1275	green	0.34	[0.25,0.75]	Ambiguous	wide	right	f
Ambiguity	42	1381	green	0.34	[0.25,0.75]	risk	wide	left	f
Ambiguity	43	781	green	0.32	[0.25,0.75]	Ambiguous	wide	left	j
Ambiguity	44	1286	green	0.3	[0.25,0.75]	Ambiguous	wide	left	j
Ambiguity	45	1056	green	0.5	[0,1]	risk	wide	right	j
Ambiguity	46	1534	green	0.41	[0,1]	Ambiguous	wide	left	j
Ambiguity	47	1765	green	0.48	[0,1]	risk	wide	right	j
Ambiguity	48	1135	green	0.46	[0,1]	risk	wide	left	f
Ambiguity	49	1115	green	0.4	[0,1]	Ambiguous	wide	left	j
Ambiguity	50	1485	green	0.4	[0,1]	Ambiguous	wide	left	j
Ambiguity	51	1610	green	0.44	[0,1]	Ambiguous	wide	right	f
Ambiguity	52	1210	green	0.45	[0,1]	Ambiguous	wide	left	j
Ambiguity	53	980	green	0.5	[0,1]	risk	wide	left	f
Ambiguity	54	1055	green	0.47	[0,1]	risk	wide	right	j
Ambiguity	55	1245	green	0.43	[0,1]	risk	wide	left	f
Ambiguity	56	1191	green	0.36	[0,1]	risk	wide	right	j
Ambiguity	57	1030	green	0.24	[0,1]	Ambiguous	wide	left	j
Ambiguity	58	840	green	0.26	[0,1]	Ambiguous	wide	left	j
Ambiguity	59	1105	green	0.31	[0,1]	Ambiguous	wide	right	f
Ambiguity	60	1726	red	0.5	[0.25,0.75]	risk	skew	right	j
Ambiguity	61	1526	red	0.4	[0.25,0.75]	Ambiguous	skew	right	f
Ambiguity	62	1381	red	0.43	[0.25,0.75]	Ambiguous	skew	right	f
Ambiguity	63	1300	red	0.47	[0.25,0.75]	risk	skew	left	f
Ambiguity	64	1235	red	0.42	[0.25,0.75]	risk	skew	left	f
Ambiguity	65	855	red	0.36	[0.25,0.75]	Ambiguous	skew	right	f
Ambiguity	66	1055	red	0.38	[0.25,0.75]	Ambiguous	skew	right	f
Ambiguity	67	1140	red	0.43	[0.25,0.75]	Ambiguous	skew	left	j
Ambiguity	68	1185	red	0.48	[0.25,0.75]	risk	skew	left	f
Ambiguity	69	1367	red	0.46	[0.25,0.75]	risk	skew	left	f
Ambiguity	70	1183	red	0.4	[0.25,0.75]	Ambiguous	skew	right	f
Ambiguity	71	1150	red	0.39	[0.25,0.75]	Ambiguous	skew	left	j
Ambiguity	72	880	red	0.42	[0.25,0.75]	Ambiguous	skew	right	f
Ambiguity	73	1105	red	0.45	[0.25,0.75]	risk	skew	left	f
Ambiguity	74	1431	red	0.43	[0.25,0.75]	risk	skew	left	f
Ambiguity	75	862	red	0.5	[0,1]	risk	skew	right	j
Ambiguity	76	1270	red	0.41	[0,1]	Ambiguous	skew	left	j
Ambiguity	77	1207	red	0.45	[0,1]	Ambiguous	skew	right	f
Ambiguity	78	1167	red	0.53	[0,1]	risk	skew	left	f
Ambiguity	79	1221	red	0.49	[0,1]	risk	skew	right	j
Ambiguity	80	1195	red	0.42	[0,1]	risk	skew	left	f
Ambiguity	81	1255	red	0.32	[0,1]	Ambiguous	skew	right	f
Ambiguity	82	1310	red	0.36	[0,1]	Ambiguous	skew	left	j
Ambiguity	83	2341	red	0.4	[0,1]	risk	skew	right	j
Ambiguity	84	1199	red	0.38	[0,1]	Ambiguous	skew	left	j
Ambiguity	85	1635	red	0.39	[0,1]	risk	skew	left	f
Ambiguity	86	695	red	0.37	[0,1]	Ambiguous	skew	right	f
Ambiguity	87	920	red	0.36	[0,1]	risk	skew	right	j
Ambiguity	88	931	red	0.34	[0,1]	Ambiguous	skew	left	j
Ambiguity	89	1112	red	0.33	[0,1]	Ambiguous	skew	left	j
