Blocktype	tnum	rt	color	winprob	Amb	choice	dist	side	response
Ambiguity	0	NA	red	0.5	[0.25,0.75]	Ambiguous	wide	right	
Ambiguity	1	1385	red	0.61	[0.25,0.75]	risk	wide	left	f
Ambiguity	2	2922	red	0.56	[0.25,0.75]	risk	wide	right	j
Ambiguity	3	2772	red	0.47	[0.25,0.75]	Ambiguous	wide	right	f
Ambiguity	4	1210	red	0.49	[0.25,0.75]	Ambiguous	wide	right	f
Ambiguity	5	1549	red	0.53	[0.25,0.75]	risk	wide	right	j
Ambiguity	6	1830	red	0.48	[0.25,0.75]	risk	wide	right	j
Ambiguity	7	1495	red	0.42	[0.25,0.75]	Ambiguous	wide	left	j
Ambiguity	8	1598	red	0.43	[0.25,0.75]	risk	wide	right	j
Ambiguity	9	966	red	0.42	[0.25,0.75]	risk	wide	right	j
Ambiguity	10	984	red	0.38	[0.25,0.75]	Ambiguous	wide	left	j
Ambiguity	11	1589	red	0.37	[0.25,0.75]	Ambiguous	wide	right	f
Ambiguity	12	1291	red	0.36	[0.25,0.75]	Ambiguous	wide	left	j
Ambiguity	13	1481	red	0.4	[0.25,0.75]	Ambiguous	wide	left	j
Ambiguity	14	1309	red	0.42	[0.25,0.75]	risk	wide	left	f
Ambiguity	15	702	red	0.5	[0,1]	risk	wide	right	j
Ambiguity	16	1685	red	0.38	[0,1]	risk	wide	left	f
Ambiguity	17	1061	red	0.23	[0,1]	risk	wide	right	j
Ambiguity	18	1378	red	0	[0,1]	Ambiguous	wide	right	f
Ambiguity	19	1088	red	0.08	[0,1]	Ambiguous	wide	left	j
Ambiguity	20	1434	red	0.24	[0,1]	risk	wide	left	f
Ambiguity	21	937	red	0.17	[0,1]	risk	wide	right	j
Ambiguity	22	958	red	0.03	[0,1]	Ambiguous	wide	left	j
Ambiguity	23	1179	red	0.09	[0,1]	Ambiguous	wide	right	f
Ambiguity	24	1269	red	0.19	[0,1]	risk	wide	right	j
Ambiguity	25	1124	red	0.15	[0,1]	Ambiguous	wide	right	f
Ambiguity	26	1116	red	0.15	[0,1]	Ambiguous	wide	right	f
Ambiguity	27	1707	red	0.21	[0,1]	Ambiguous	wide	right	f
Ambiguity	28	924	red	0.28	[0,1]	risk	wide	left	f
Ambiguity	29	879	red	0.24	[0,1]	risk	wide	right	j
Ambiguity	30	1177	blue	0.5	[0.25,0.75]	risk	narrow	left	f
Ambiguity	31	1079	blue	0.38	[0.25,0.75]	risk	narrow	left	f
Ambiguity	32	1080	blue	0.24	[0.25,0.75]	risk	narrow	left	f
Ambiguity	33	1072	blue	0	[0.25,0.75]	Ambiguous	narrow	left	j
Ambiguity	34	1015	blue	0.13	[0.25,0.75]	Ambiguous	narrow	right	f
Ambiguity	35	869	blue	0.29	[0.25,0.75]	Ambiguous	narrow	left	j
Ambiguity	36	1156	blue	0.55	[0.25,0.75]	risk	narrow	left	f
Ambiguity	37	1122	blue	0.41	[0.25,0.75]	risk	narrow	left	f
Ambiguity	38	963	blue	0.21	[0.25,0.75]	Ambiguous	narrow	left	j
Ambiguity	39	989	blue	0.3	[0.25,0.75]	risk	narrow	right	j
Ambiguity	40	1835	blue	0.24	[0.25,0.75]	Ambiguous	narrow	right	f
Ambiguity	41	1163	blue	0.25	[0.25,0.75]	Ambiguous	narrow	right	f
Ambiguity	42	1294	blue	0.26	[0.25,0.75]	Ambiguous	narrow	left	j
Ambiguity	43	1056	blue	0.28	[0.25,0.75]	risk	narrow	right	j
Ambiguity	44	863	blue	0.25	[0.25,0.75]	Ambiguous	narrow	left	j
Ambiguity	45	848	blue	0.5	[0,1]	risk	narrow	right	j
Ambiguity	46	1170	blue	0.39	[0,1]	risk	narrow	left	f
Ambiguity	47	641	blue	0.22	[0,1]	risk	narrow	left	f
Ambiguity	48	864	blue	0	[0,1]	risk	narrow	right	j
Ambiguity	49	610	blue	0	[0,1]	risk	narrow	right	j
Ambiguity	50	883	blue	0	[0,1]	risk	narrow	right	j
Ambiguity	51	669	blue	0	[0,1]	Ambiguous	narrow	left	j
Ambiguity	52	905	blue	0.35	[0,1]	risk	narrow	left	f
Ambiguity	53	614	blue	0.16	[0,1]	risk	narrow	right	j
Ambiguity	54	999	blue	0	[0,1]	risk	narrow	right	j
Ambiguity	55	517	blue	0	[0,1]	risk	narrow	left	f
Ambiguity	56	363	blue	0	[0,1]	Ambiguous	narrow	left	j
Ambiguity	57	606	blue	0.29	[0,1]	risk	narrow	right	j
Ambiguity	58	421	blue	0.13	[0,1]	risk	narrow	left	f
Ambiguity	59	572	blue	0	[0,1]	risk	narrow	left	f
Ambiguity	60	945	green	0.5	[0.25,0.75]	risk	skew	left	f
Ambiguity	61	834	green	0.41	[0.25,0.75]	risk	skew	left	f
Ambiguity	62	550	green	0.25	[0.25,0.75]	risk	skew	left	f
Ambiguity	63	554	green	0.03	[0.25,0.75]	risk	skew	right	j
Ambiguity	64	932	green	0	[0.25,0.75]	Ambiguous	skew	left	j
Ambiguity	65	575	green	0.16	[0.25,0.75]	risk	skew	right	j
Ambiguity	66	493	green	0.06	[0.25,0.75]	risk	skew	left	f
Ambiguity	67	700	green	0	[0.25,0.75]	risk	skew	right	j
Ambiguity	68	621	green	0	[0.25,0.75]	risk	skew	right	j
Ambiguity	69	703	green	0	[0.25,0.75]	Ambiguous	skew	left	j
Ambiguity	70	735	green	0.15	[0.25,0.75]	Ambiguous	skew	left	j
Ambiguity	71	665	green	0.34	[0.25,0.75]	risk	skew	right	j
Ambiguity	72	1039	green	0.24	[0.25,0.75]	risk	skew	right	j
Ambiguity	73	488	green	0.07	[0.25,0.75]	risk	skew	right	j
Ambiguity	74	546	green	0	[0.25,0.75]	risk	skew	right	j
Ambiguity	75	790	green	0.5	[0,1]	risk	skew	left	f
Ambiguity	76	1170	green	0.38	[0,1]	risk	skew	right	j
Ambiguity	77	607	green	0.21	[0,1]	Ambiguous	skew	left	j
Ambiguity	78	674	green	0.27	[0,1]	Ambiguous	skew	left	j
Ambiguity	79	585	green	0.36	[0,1]	risk	skew	right	j
Ambiguity	80	701	green	0.29	[0,1]	Ambiguous	skew	left	j
Ambiguity	81	756	green	0.33	[0,1]	Ambiguous	skew	left	j
Ambiguity	82	607	green	0.38	[0,1]	risk	skew	right	j
Ambiguity	83	621	green	0.35	[0,1]	Ambiguous	skew	left	j
Ambiguity	84	776	green	0.36	[0,1]	Ambiguous	skew	left	j
Ambiguity	85	566	green	0.37	[0,1]	risk	skew	right	j
Ambiguity	86	857	green	0.34	[0,1]	Ambiguous	skew	left	j
Ambiguity	87	802	green	0.35	[0,1]	Ambiguous	skew	left	j
Ambiguity	88	533	green	0.38	[0,1]	Ambiguous	skew	left	j
Ambiguity	89	919	green	0.39	[0,1]	risk	skew	right	j
