Blocktype	tnum	rt	color	winprob	Amb	choice	dist	side	response
Ambiguity	0	3069	green	0.5	[0.25,0.75]	Ambiguous	wide	right	f
Ambiguity	1	2452	green	0.57	[0.25,0.75]	risk	wide	right	j
Ambiguity	2	2562	green	0.52	[0.25,0.75]	risk	wide	right	j
Ambiguity	3	1593	green	0.45	[0.25,0.75]	Ambiguous	wide	right	f
Ambiguity	4	1765	green	0.51	[0.25,0.75]	risk	wide	left	f
Ambiguity	5	1389	green	0.47	[0.25,0.75]	Ambiguous	wide	right	f
Ambiguity	6	1657	green	0.47	[0.25,0.75]	Ambiguous	wide	left	j
Ambiguity	7	854	green	0.5	[0.25,0.75]	risk	wide	left	f
Ambiguity	8	553	green	0.5	[0.25,0.75]	risk	wide	left	f
Ambiguity	9	1184	green	0.48	[0.25,0.75]	Ambiguous	wide	right	f
Ambiguity	10	1441	green	0.5	[0.25,0.75]	risk	wide	left	f
Ambiguity	11	842	green	0.49	[0.25,0.75]	Ambiguous	wide	right	f
Ambiguity	12	1359	green	0.46	[0.25,0.75]	Ambiguous	wide	right	f
Ambiguity	13	1144	green	0.45	[0.25,0.75]	Ambiguous	wide	right	f
Ambiguity	14	895	green	0.44	[0.25,0.75]	Ambiguous	wide	right	f
Ambiguity	15	2556	green	0.5	[0,1]	risk	wide	left	f
Ambiguity	16	1575	green	0.38	[0,1]	Ambiguous	wide	left	j
Ambiguity	17	2296	green	0.4	[0,1]	Ambiguous	wide	right	f
Ambiguity	18	2457	green	0.47	[0,1]	Ambiguous	wide	left	j
Ambiguity	19	719	green	0.56	[0,1]	risk	wide	left	f
Ambiguity	20	521	green	0.5	[0,1]	risk	wide	left	f
Ambiguity	21	1125	green	0.42	[0,1]	Ambiguous	wide	right	f
Ambiguity	22	1320	green	0.46	[0,1]	Ambiguous	wide	right	f
Ambiguity	23	613	green	0.51	[0,1]	risk	wide	left	f
Ambiguity	24	1376	green	0.46	[0,1]	Ambiguous	wide	left	j
Ambiguity	25	800	green	0.45	[0,1]	Ambiguous	wide	left	j
Ambiguity	26	1104	green	0.46	[0,1]	Ambiguous	wide	left	j
Ambiguity	27	1831	green	0.49	[0,1]	risk	wide	right	j
Ambiguity	28	1073	green	0.46	[0,1]	Ambiguous	wide	right	f
Ambiguity	29	1180	green	0.45	[0,1]	Ambiguous	wide	right	f
Ambiguity	30	2497	blue	0.5	[0.25,0.75]	risk	narrow	right	j
Ambiguity	31	2807	blue	0.41	[0.25,0.75]	Ambiguous	narrow	left	j
Ambiguity	32	973	blue	0.46	[0.25,0.75]	Ambiguous	narrow	right	f
Ambiguity	33	754	blue	0.51	[0.25,0.75]	risk	narrow	right	j
Ambiguity	34	2986	blue	0.48	[0.25,0.75]	risk	narrow	right	j
Ambiguity	35	882	blue	0.43	[0.25,0.75]	Ambiguous	narrow	left	j
Ambiguity	36	1178	blue	0.46	[0.25,0.75]	Ambiguous	narrow	left	j
Ambiguity	37	1156	blue	0.52	[0.25,0.75]	risk	narrow	right	j
Ambiguity	38	1187	blue	0.49	[0.25,0.75]	risk	narrow	right	j
Ambiguity	39	3385	blue	0.46	[0.25,0.75]	Ambiguous	narrow	right	f
Ambiguity	40	1032	blue	0.49	[0.25,0.75]	risk	narrow	left	f
Ambiguity	41	1048	blue	0.47	[0.25,0.75]	risk	narrow	right	j
Ambiguity	42	1118	blue	0.44	[0.25,0.75]	Ambiguous	narrow	right	f
Ambiguity	43	1284	blue	0.44	[0.25,0.75]	Ambiguous	narrow	left	j
Ambiguity	44	1141	blue	0.45	[0.25,0.75]	Ambiguous	narrow	right	f
Ambiguity	45	1235	blue	0.5	[0,1]	risk	narrow	left	f
Ambiguity	46	1252	blue	0.4	[0,1]	Ambiguous	narrow	right	f
Ambiguity	47	927	blue	0.42	[0,1]	Ambiguous	narrow	left	j
Ambiguity	48	933	blue	0.48	[0,1]	risk	narrow	left	f
Ambiguity	49	1032	blue	0.43	[0,1]	Ambiguous	narrow	right	f
Ambiguity	50	2371	blue	0.47	[0,1]	Ambiguous	narrow	right	f
Ambiguity	51	1739	blue	0.52	[0,1]	risk	narrow	left	f
Ambiguity	52	1640	blue	0.49	[0,1]	risk	narrow	left	f
Ambiguity	53	3166	blue	0.46	[0,1]	Ambiguous	narrow	right	f
Ambiguity	54	2600	blue	0.46	[0,1]	Ambiguous	narrow	left	j
Ambiguity	55	3693	blue	0.45	[0,1]	Ambiguous	narrow	right	f
Ambiguity	56	863	blue	0.49	[0,1]	risk	narrow	left	f
Ambiguity	57	1046	blue	0.48	[0,1]	risk	narrow	right	j
Ambiguity	58	960	blue	0.45	[0,1]	Ambiguous	narrow	right	f
Ambiguity	59	913	blue	0.48	[0,1]	risk	narrow	left	f
Ambiguity	60	3036	red	0.5	[0.25,0.75]	Ambiguous	skew	right	f
Ambiguity	61	2451	red	0.57	[0.25,0.75]	Ambiguous	skew	left	j
Ambiguity	62	1757	red	0.7	[0.25,0.75]	risk	skew	right	j
Ambiguity	63	1983	red	0.6	[0.25,0.75]	Ambiguous	skew	left	j
Ambiguity	64	2076	red	0.62	[0.25,0.75]	risk	skew	right	j
Ambiguity	65	1658	red	0.59	[0.25,0.75]	risk	skew	left	f
Ambiguity	66	1905	red	0.57	[0.25,0.75]	risk	skew	right	j
Ambiguity	67	847	red	0.51	[0.25,0.75]	Ambiguous	skew	right	f
Ambiguity	68	2656	red	0.51	[0.25,0.75]	Ambiguous	skew	right	f
Ambiguity	69	1368	red	0.51	[0.25,0.75]	Ambiguous	skew	right	f
Ambiguity	70	1182	red	0.58	[0.25,0.75]	risk	skew	right	j
Ambiguity	71	1141	red	0.57	[0.25,0.75]	risk	skew	left	f
Ambiguity	72	885	red	0.51	[0.25,0.75]	risk	skew	right	j
Ambiguity	73	833	red	0.46	[0.25,0.75]	Ambiguous	skew	left	j
Ambiguity	74	1325	red	0.5	[0.25,0.75]	Ambiguous	skew	right	f
Ambiguity	75	1076	red	0.5	[0,1]	risk	skew	right	j
Ambiguity	76	1887	red	0.39	[0,1]	risk	skew	left	f
Ambiguity	77	1173	red	0.23	[0,1]	Ambiguous	skew	right	f
Ambiguity	78	1527	red	0.3	[0,1]	Ambiguous	skew	right	f
Ambiguity	79	1204	red	0.42	[0,1]	Ambiguous	skew	right	f
Ambiguity	80	955	red	0.6	[0,1]	risk	skew	left	f
Ambiguity	81	1006	red	0.53	[0,1]	Ambiguous	skew	right	f
Ambiguity	82	1180	red	0.58	[0,1]	risk	skew	left	f
Ambiguity	83	1015	red	0.57	[0,1]	risk	skew	right	j
Ambiguity	84	1028	red	0.52	[0,1]	risk	skew	right	j
Ambiguity	85	1330	red	0.45	[0,1]	Ambiguous	skew	left	j
Ambiguity	86	1316	red	0.47	[0,1]	risk	skew	right	j
Ambiguity	87	1203	red	0.46	[0,1]	Ambiguous	skew	left	j
Ambiguity	88	1050	red	0.45	[0,1]	Ambiguous	skew	right	f
Ambiguity	89	3201	red	0.46	[0,1]	Ambiguous	skew	left	j
