Blocktype	tnum	rt	color	winprob	Amb	RL_feedback	choice	dist	side	response
Learning	1	980	red	0.5	[0,1]	win	risk	norm	right	j
Learning	2	888	red	0.38	[0,1]	win	Amb	norm	left	j
Learning	3	1401	red	0.45	[0,1]	win	risk	norm	left	f
Learning	4	998	red	0.43	[0,1]	win	Amb	norm	right	f
Learning	5	758	red	0.41	[0,1]	win	Amb	norm	left	j
Learning	6	835	red	0.45	[0,1]	win	Amb	norm	right	f
Learning	7	965	red	0.45	[0,1]	win	Amb	norm	left	j
Learning	8	1205	red	0.48	[0,1]	win	Amb	norm	right	f
Learning	9	720	red	0.52	[0,1]	win	risk	norm	left	f
Learning	10	940	red	0.49	[0,1]	win	Amb	norm	left	j
Learning	11	1402	red	0.48	[0,1]	win	Amb	norm	left	j
Learning	12	435	red	0.51	[0,1]	win	risk	norm	left	f
Learning	13	622	red	0.49	[0,1]	win	risk	norm	left	f
Learning	14	585	red	0.48	[0,1]	win	risk	norm	left	f
Learning	15	572	red	0.43	[0,1]	win	Amb	norm	left	j
Learning	1	698	green	0.5	[0,1]	lose	risk	norm	left	f
Learning	2	860	green	0.4	[0,1]	lose	Amb	norm	right	f
Learning	3	971	green	0.45	[0,1]	lose	risk	norm	left	f
Learning	4	645	green	0.41	[0,1]	lose	Amb	norm	left	j
Learning	5	469	green	0.42	[0,1]	lose	risk	norm	left	f
Learning	6	462	green	0.42	[0,1]	lose	Amb	norm	left	j
Learning	7	540	green	0.39	[0,1]	lose	Amb	norm	left	j
Learning	8	889	green	0.4	[0,1]	lose	Amb	norm	left	j
Learning	9	769	green	0.41	[0,1]	lose	Amb	norm	right	f
Learning	10	725	green	0.39	[0,1]	lose	Amb	norm	right	f
Learning	11	589	green	0.39	[0,1]	lose	risk	norm	left	f
Learning	12	683	green	0.36	[0,1]	lose	Amb	norm	left	j
Learning	13	745	green	0.36	[0,1]	lose	Amb	norm	right	f
Learning	14	707	green	0.38	[0,1]	lose	Amb	norm	left	j
Learning	15	516	green	0.38	[0,1]	lose	Amb	norm	left	j
Learning	1	756	green	0.5	[0,1]	win	risk	norm	left	f
Learning	2	803	green	0.39	[0,1]	win	Amb	norm	right	f
Learning	3	915	green	0.42	[0,1]	win	Amb	norm	right	f
Learning	4	1001	green	0.46	[0,1]	win	risk	norm	left	f
Learning	5	600	green	0.41	[0,1]	win	Amb	norm	right	f
Learning	6	684	green	0.44	[0,1]	win	Amb	norm	right	f
Learning	7	676	green	0.47	[0,1]	win	Amb	norm	left	j
Learning	8	546	green	0.51	[0,1]	win	risk	norm	left	f
Learning	9	493	green	0.48	[0,1]	win	Amb	norm	left	j
Learning	10	436	green	0.51	[0,1]	win	risk	norm	left	f
Learning	11	792	green	0.5	[0,1]	win	risk	norm	right	j
Learning	12	680	green	0.5	[0,1]	win	risk	norm	right	j
Learning	13	660	green	0.5	[0,1]	win	risk	norm	right	j
Learning	14	587	green	0.46	[0,1]	win	risk	norm	left	f
Learning	15	498	green	0.43	[0,1]	win	Amb	norm	left	j
Learning	1	706	blue	0.5	[0,1]	lose	risk	norm	left	f
Learning	2	834	blue	0.38	[0,1]	lose	Amb	norm	right	f
Learning	3	614	blue	0.41	[0,1]	lose	Amb	norm	right	f
Learning	4	538	blue	0.48	[0,1]	lose	Amb	norm	right	f
Learning	5	478	blue	0.56	[0,1]	lose	risk	norm	right	j
Learning	6	668	blue	0.5	[0,1]	lose	risk	norm	right	j
Learning	7	628	blue	0.43	[0,1]	lose	Amb	norm	right	f
Learning	8	610	blue	0.44	[0,1]	lose	Amb	norm	left	j
Learning	9	597	blue	0.52	[0,1]	lose	Amb	norm	right	f
Learning	10	1166	blue	0.63	[0,1]	lose	Amb	norm	left	j
Learning	11	757	blue	0.77	[0,1]	lose	risk	norm	right	j
Learning	12	430	blue	0.71	[0,1]	lose	risk	norm	left	f
Learning	13	939	blue	0.58	[0,1]	lose	risk	norm	right	j
Learning	14	614	blue	0.43	[0,1]	lose	Amb	norm	right	f
Learning	15	745	blue	0.52	[0,1]	lose	risk	norm	left	f
Learning	1	789	blue	0.5	[0,1]	win	risk	norm	left	f
Learning	2	577	blue	0.38	[0,1]	win	Amb	norm	left	j
Learning	3	746	blue	0.43	[0,1]	win	Amb	norm	right	f
Learning	4	561	blue	0.48	[0,1]	win	Amb	norm	left	j
Learning	5	497	blue	0.59	[0,1]	win	risk	norm	left	f
Learning	6	495	blue	0.53	[0,1]	win	risk	norm	left	f
Learning	7	638	blue	0.43	[0,1]	win	Amb	norm	right	f
Learning	8	1880	blue	0.46	[0,1]	win	Amb	norm	right	f
Learning	9	766	blue	0.54	[0,1]	win	risk	norm	left	f
Learning	10	721	blue	0.51	[0,1]	win	risk	norm	right	j
Learning	11	624	blue	0.44	[0,1]	win	Amb	norm	right	f
Learning	12	645	blue	0.45	[0,1]	win	Amb	norm	right	f
Learning	13	713	blue	0.51	[0,1]	win	risk	norm	left	f
Learning	14	795	blue	0.49	[0,1]	win	Amb	norm	right	f
Learning	15	637	blue	0.51	[0,1]	win	risk	norm	right	j
Learning	1	687	red	0.5	[0,1]	lose	risk	norm	left	f
Learning	2	576	red	0.41	[0,1]	lose	Amb	norm	right	f
Learning	3	1071	red	0.48	[0,1]	lose	Amb	norm	left	j
Learning	4	683	red	0.53	[0,1]	lose	risk	norm	right	j
Learning	5	453	red	0.5	[0,1]	lose	risk	norm	left	f
Learning	6	447	red	0.43	[0,1]	lose	Amb	norm	left	j
Learning	7	617	red	0.48	[0,1]	lose	Amb	norm	right	f
Learning	8	475	red	0.54	[0,1]	lose	risk	norm	left	f
Learning	9	481	red	0.51	[0,1]	lose	risk	norm	left	f
Learning	10	1365	red	0.47	[0,1]	lose	Amb	norm	right	f
Learning	11	787	red	0.48	[0,1]	lose	Amb	norm	left	j
Learning	12	1323	red	0.47	[0,1]	lose	risk	norm	left	f
Learning	13	646	red	0.45	[0,1]	lose	Amb	norm	left	j
Learning	14	770	red	0.43	[0,1]	lose	Amb	norm	right	f
Learning	15	2076	red	0.43	[0,1]	lose	Amb	norm	left	j
