Blocktype	tnum	rt	color	winprob	Amb	RL_feedback	choice	dist	side	response
Learning	1	3609	green	0.5	[0,1]	lose	Amb	norm	left	j
Learning	2	1316	green	0.61	[0,1]	lose	risk	norm	left	f
Learning	3	1251	green	0.56	[0,1]	lose	risk	norm	left	f
Learning	4	820	green	0.48	[0,1]	lose	Amb	norm	right	f
Learning	5	659	green	0.53	[0,1]	lose	risk	norm	left	f
Learning	6	920	green	0.5	[0,1]	lose	risk	norm	left	f
Learning	7	1822	green	0.47	[0,1]	lose	risk	norm	right	j
Learning	8	1743	green	0.44	[0,1]	lose	Amb	norm	left	j
Learning	9	2011	green	0.43	[0,1]	lose	Amb	norm	left	j
Learning	10	508	green	0.44	[0,1]	lose	risk	norm	left	f
Learning	11	441	green	0.4	[0,1]	lose	risk	norm	left	f
Learning	12	2314	green	0.36	[0,1]	lose	Amb	norm	right	f
Learning	13	2038	green	0.37	[0,1]	lose	Amb	norm	left	j
Learning	14	888	green	0.36	[0,1]	lose	risk	norm	right	j
Learning	15	493	green	0.36	[0,1]	lose	risk	norm	left	f
Learning	1	715	blue	0.5	[0,1]	win	Amb	norm	left	j
Learning	2	393	blue	0.6	[0,1]	win	Amb	norm	right	f
Learning	3	376	blue	0.77	[0,1]	win	Amb	norm	right	f
Learning	4	345	blue	0.97	[0,1]	win	Amb	norm	right	f
Learning	5	429	blue	1	[0,1]	win	risk	norm	right	j
Learning	6	1973	blue	0.81	[0,1]	win	risk	norm	right	j
Learning	7	680	blue	0.56	[0,1]	win	Amb	norm	right	f
Learning	8	881	blue	0.69	[0,1]	win	risk	norm	left	f
Learning	9	742	blue	0.62	[0,1]	win	Amb	norm	right	f
Learning	10	831	blue	0.64	[0,1]	win	Amb	norm	right	f
Learning	11	671	blue	0.67	[0,1]	win	Amb	norm	right	f
Learning	12	1060	blue	0.73	[0,1]	win	risk	norm	left	f
Learning	13	653	blue	0.68	[0,1]	win	Amb	norm	right	f
Learning	14	697	blue	0.67	[0,1]	win	Amb	norm	right	f
Learning	15	686	blue	0.72	[0,1]	win	Amb	norm	left	j
Learning	1	938	red	0.5	[0,1]	lose	risk	norm	left	f
Learning	2	527	red	0.39	[0,1]	lose	risk	norm	right	j
Learning	3	980	red	0.22	[0,1]	lose	risk	norm	left	f
Learning	4	824	red	0	[0,1]	lose	Amb	norm	right	f
Learning	5	652	red	0.11	[0,1]	lose	Amb	norm	left	j
Learning	6	674	red	0.3	[0,1]	lose	Amb	norm	left	j
Learning	7	822	red	0.53	[0,1]	lose	risk	norm	right	j
Learning	8	742	red	0.4	[0,1]	lose	Amb	norm	right	f
Learning	9	1367	red	0.46	[0,1]	lose	risk	norm	right	j
Learning	10	497	red	0.41	[0,1]	lose	risk	norm	right	j
Learning	11	670	red	0.35	[0,1]	lose	risk	norm	left	f
Learning	12	656	red	0.27	[0,1]	lose	Amb	norm	left	j
Learning	13	670	red	0.33	[0,1]	lose	Amb	norm	left	j
Learning	14	693	red	0.4	[0,1]	lose	Amb	norm	left	j
Learning	15	568	red	0.45	[0,1]	lose	Amb	norm	left	j
Learning	1	646	blue	0.5	[0,1]	lose	risk	norm	left	f
Learning	2	500	blue	0.38	[0,1]	lose	risk	norm	right	j
Learning	3	475	blue	0.24	[0,1]	lose	risk	norm	left	f
Learning	4	735	blue	0.01	[0,1]	lose	Amb	norm	right	f
Learning	5	736	blue	0.13	[0,1]	lose	Amb	norm	left	j
Learning	6	625	blue	0.3	[0,1]	lose	Amb	norm	right	f
Learning	7	893	blue	0.57	[0,1]	lose	risk	norm	left	f
Learning	8	1030	blue	0.42	[0,1]	lose	Amb	norm	right	f
Learning	9	686	blue	0.5	[0,1]	lose	risk	norm	left	f
Learning	10	1008	blue	0.48	[0,1]	lose	Amb	norm	left	j
Learning	11	520	blue	0.5	[0,1]	lose	risk	norm	left	f
Learning	12	1538	blue	0.49	[0,1]	lose	risk	norm	right	j
Learning	13	1219	blue	0.47	[0,1]	lose	Amb	norm	right	f
Learning	14	1260	blue	0.49	[0,1]	lose	risk	norm	left	f
Learning	15	753	blue	0.49	[0,1]	lose	risk	norm	left	f
Learning	1	698	red	0.5	[0,1]	win	Amb	norm	left	j
Learning	2	935	red	0.6	[0,1]	win	Amb	norm	right	f
Learning	3	933	red	0.73	[0,1]	win	Amb	norm	right	f
Learning	4	633	red	0.98	[0,1]	win	Amb	norm	left	j
Learning	5	495	red	1	[0,1]	win	risk	norm	left	f
Learning	6	1832	red	0.84	[0,1]	win	risk	norm	right	j
Learning	7	915	red	0.58	[0,1]	win	Amb	norm	left	j
Learning	8	1589	red	0.7	[0,1]	win	risk	norm	left	f
Learning	9	672	red	0.63	[0,1]	win	Amb	norm	right	f
Learning	10	731	red	0.68	[0,1]	win	Amb	norm	left	j
Learning	11	676	red	0.73	[0,1]	win	Amb	norm	right	f
Learning	12	861	red	0.82	[0,1]	win	Amb	norm	left	j
Learning	13	573	red	0.92	[0,1]	win	risk	norm	left	f
Learning	14	885	red	0.86	[0,1]	win	Amb	norm	right	f
Learning	15	501	red	0.86	[0,1]	win	risk	norm	left	f
Learning	1	565	green	0.5	[0,1]	win	risk	norm	right	j
Learning	2	686	green	0.41	[0,1]	win	Amb	norm	left	j
Learning	3	449	green	0.45	[0,1]	win	Amb	norm	left	j
Learning	4	371	green	0.51	[0,1]	win	Amb	norm	left	j
Learning	5	763	green	0.59	[0,1]	win	risk	norm	right	j
Learning	6	584	green	0.52	[0,1]	win	Amb	norm	right	f
Learning	7	619	green	0.52	[0,1]	win	Amb	norm	left	j
Learning	8	639	green	0.53	[0,1]	win	Amb	norm	right	f
Learning	9	1085	green	0.56	[0,1]	win	Amb	norm	right	f
Learning	10	969	green	0.64	[0,1]	win	Amb	norm	right	f
Learning	11	591	green	0.75	[0,1]	win	risk	norm	right	j
Learning	12	716	green	0.68	[0,1]	win	Amb	norm	left	j
Learning	13	547	green	0.69	[0,1]	win	Amb	norm	left	j
Learning	14	578	green	0.74	[0,1]	win	Amb	norm	right	f
Learning	15	623	green	0.8	[0,1]	win	risk	norm	right	j
