Blocktype	tnum	rt	color	winprob	Amb	choice	dist	side	response
Ambiguity	0	2590	blue	0.5	[0.25,0.75]	risk	narrow	left	f
Ambiguity	1	1911	blue	0.38	[0.25,0.75]	Ambiguous	narrow	left	j
Ambiguity	2	1467	blue	0.4	[0.25,0.75]	Ambiguous	narrow	left	j
Ambiguity	3	1604	blue	0.5	[0.25,0.75]	Ambiguous	narrow	left	j
Ambiguity	4	1892	blue	0.59	[0.25,0.75]	risk	narrow	right	j
Ambiguity	5	1880	blue	0.54	[0.25,0.75]	Ambiguous	narrow	right	f
Ambiguity	6	2956	blue	0.55	[0.25,0.75]	risk	narrow	left	f
Ambiguity	7	1852	blue	0.52	[0.25,0.75]	Ambiguous	narrow	right	f
Ambiguity	8	1173	blue	0.5	[0.25,0.75]	Ambiguous	narrow	right	f
Ambiguity	9	1438	blue	0.52	[0.25,0.75]	Ambiguous	narrow	right	f
Ambiguity	10	1169	blue	0.56	[0.25,0.75]	risk	narrow	left	f
Ambiguity	11	1548	blue	0.54	[0.25,0.75]	risk	narrow	right	j
Ambiguity	12	835	blue	0.51	[0.25,0.75]	Ambiguous	narrow	right	f
Ambiguity	13	1080	blue	0.5	[0.25,0.75]	Ambiguous	narrow	left	j
Ambiguity	14	1266	blue	0.5	[0.25,0.75]	risk	narrow	right	j
Ambiguity	15	1585	blue	0.5	[0,1]	risk	narrow	right	j
Ambiguity	16	3265	blue	0.41	[0,1]	Ambiguous	narrow	right	f
Ambiguity	17	2061	blue	0.48	[0,1]	risk	narrow	left	f
Ambiguity	18	1450	blue	0.46	[0,1]	risk	narrow	right	j
Ambiguity	19	1645	blue	0.41	[0,1]	Ambiguous	narrow	right	f
Ambiguity	20	1059	blue	0.43	[0,1]	Ambiguous	narrow	left	j
Ambiguity	21	1016	blue	0.43	[0,1]	Ambiguous	narrow	right	f
Ambiguity	22	1828	blue	0.46	[0,1]	risk	narrow	right	j
Ambiguity	23	865	blue	0.44	[0,1]	Ambiguous	narrow	right	f
Ambiguity	24	928	blue	0.46	[0,1]	Ambiguous	narrow	right	f
Ambiguity	25	3294	blue	0.45	[0,1]	Ambiguous	narrow	right	f
Ambiguity	26	645	blue	0.44	[0,1]	Ambiguous	narrow	right	f
Ambiguity	27	822	blue	0.49	[0,1]	Ambiguous	narrow	right	f
Ambiguity	28	574	blue	0.54	[0,1]	risk	narrow	right	j
Ambiguity	29	1327	blue	0.49	[0,1]	Ambiguous	narrow	left	j
Ambiguity	30	NA	green	0.5	[0.25,0.75]	Ambiguous	skew	right	
Ambiguity	31	950	green	0.58	[0.25,0.75]	risk	skew	left	f
Ambiguity	32	1201	green	0.54	[0.25,0.75]	risk	skew	left	f
Ambiguity	33	818	green	0.47	[0.25,0.75]	Ambiguous	skew	right	f
Ambiguity	34	747	green	0.52	[0.25,0.75]	Ambiguous	skew	right	f
Ambiguity	35	1504	green	0.6	[0.25,0.75]	risk	skew	right	j
Ambiguity	36	975	green	0.58	[0.25,0.75]	risk	skew	left	f
Ambiguity	37	1085	green	0.53	[0.25,0.75]	risk	skew	right	j
Ambiguity	38	781	green	0.48	[0.25,0.75]	Ambiguous	skew	left	j
Ambiguity	39	1251	green	0.5	[0.25,0.75]	Ambiguous	skew	left	j
Ambiguity	40	855	green	0.57	[0.25,0.75]	risk	skew	right	j
Ambiguity	41	623	green	0.56	[0.25,0.75]	risk	skew	right	j
Ambiguity	42	748	green	0.52	[0.25,0.75]	Ambiguous	skew	right	f
Ambiguity	43	770	green	0.55	[0.25,0.75]	risk	skew	left	f
Ambiguity	44	665	green	0.54	[0.25,0.75]	risk	skew	right	j
Ambiguity	45	729	green	0.5	[0,1]	Ambiguous	skew	right	f
Ambiguity	46	741	green	0.58	[0,1]	risk	skew	left	f
Ambiguity	47	1017	green	0.53	[0,1]	risk	skew	right	j
Ambiguity	48	1525	green	0.46	[0,1]	Ambiguous	skew	left	j
Ambiguity	49	949	green	0.48	[0,1]	risk	skew	left	f
Ambiguity	50	729	green	0.44	[0,1]	Ambiguous	skew	left	j
Ambiguity	51	637	green	0.42	[0,1]	Ambiguous	skew	left	j
Ambiguity	52	1281	green	0.44	[0,1]	Ambiguous	skew	left	j
Ambiguity	53	1066	green	0.44	[0,1]	risk	skew	right	j
Ambiguity	54	984	green	0.41	[0,1]	Ambiguous	skew	left	j
Ambiguity	55	1000	green	0.41	[0,1]	Ambiguous	skew	right	f
Ambiguity	56	775	green	0.43	[0,1]	Ambiguous	skew	right	f
Ambiguity	57	894	green	0.42	[0,1]	Ambiguous	skew	left	j
Ambiguity	58	751	green	0.44	[0,1]	risk	skew	right	j
Ambiguity	59	697	green	0.42	[0,1]	Ambiguous	skew	right	f
Ambiguity	60	2779	red	0.5	[0.25,0.75]	risk	wide	right	j
Ambiguity	61	905	red	0.4	[0.25,0.75]	Ambiguous	wide	left	j
Ambiguity	62	1580	red	0.42	[0.25,0.75]	Ambiguous	wide	left	j
Ambiguity	63	639	red	0.46	[0.25,0.75]	Ambiguous	wide	left	j
Ambiguity	64	932	red	0.59	[0.25,0.75]	risk	wide	left	f
Ambiguity	65	1250	red	0.53	[0.25,0.75]	Ambiguous	wide	right	f
Ambiguity	66	852	red	0.58	[0.25,0.75]	risk	wide	left	f
Ambiguity	67	761	red	0.55	[0.25,0.75]	risk	wide	right	j
Ambiguity	68	1196	red	0.54	[0.25,0.75]	risk	wide	left	f
Ambiguity	69	887	red	0.51	[0.25,0.75]	Ambiguous	wide	right	f
Ambiguity	70	836	red	0.53	[0.25,0.75]	risk	wide	right	j
Ambiguity	71	653	red	0.53	[0.25,0.75]	risk	wide	right	j
Ambiguity	72	635	red	0.52	[0.25,0.75]	risk	wide	right	j
Ambiguity	73	691	red	0.48	[0.25,0.75]	Ambiguous	wide	left	j
Ambiguity	74	775	red	0.48	[0.25,0.75]	Ambiguous	wide	left	j
Ambiguity	75	1104	red	0.5	[0,1]	Ambiguous	wide	right	f
Ambiguity	76	753	red	0.6	[0,1]	risk	wide	right	j
Ambiguity	77	577	red	0.53	[0,1]	risk	wide	right	j
Ambiguity	78	940	red	0.43	[0,1]	Ambiguous	wide	left	j
Ambiguity	79	1207	red	0.45	[0,1]	risk	wide	right	j
Ambiguity	80	765	red	0.44	[0,1]	Ambiguous	wide	left	j
Ambiguity	81	699	red	0.44	[0,1]	risk	wide	right	j
Ambiguity	82	706	red	0.42	[0,1]	Ambiguous	wide	right	f
Ambiguity	83	908	red	0.43	[0,1]	Ambiguous	wide	left	j
Ambiguity	84	691	red	0.42	[0,1]	Ambiguous	wide	right	f
Ambiguity	85	656	red	0.45	[0,1]	Ambiguous	wide	left	j
Ambiguity	86	711	red	0.44	[0,1]	Ambiguous	wide	left	j
Ambiguity	87	796	red	0.43	[0,1]	Ambiguous	wide	left	j
Ambiguity	88	499	red	0.42	[0,1]	Ambiguous	wide	left	j
Ambiguity	89	1014	red	0.45	[0,1]	Ambiguous	wide	left	j
