Blocktype	tnum	rt	color	winprob	Amb	choice	dist	side	response
Ambiguity	0	1666	blue	0.5	[0.25,0.75]	risk	wide	right	j
Ambiguity	1	2371	blue	0.41	[0.25,0.75]	Ambiguous	wide	right	f
Ambiguity	2	1480	blue	0.46	[0.25,0.75]	risk	wide	left	f
Ambiguity	3	1457	blue	0.42	[0.25,0.75]	Ambiguous	wide	right	f
Ambiguity	4	1914	blue	0.43	[0.25,0.75]	Ambiguous	wide	right	f
Ambiguity	5	523	blue	0.43	[0.25,0.75]	Ambiguous	wide	right	f
Ambiguity	6	1332	blue	0.47	[0.25,0.75]	risk	wide	left	f
Ambiguity	7	1034	blue	0.44	[0.25,0.75]	Ambiguous	wide	left	j
Ambiguity	8	1014	blue	0.46	[0.25,0.75]	risk	wide	left	f
Ambiguity	9	999	blue	0.45	[0.25,0.75]	risk	wide	right	j
Ambiguity	10	1997	blue	0.44	[0.25,0.75]	risk	wide	right	j
Ambiguity	11	1037	blue	0.41	[0.25,0.75]	Ambiguous	wide	right	f
Ambiguity	12	535	blue	0.39	[0.25,0.75]	Ambiguous	wide	right	f
Ambiguity	13	501	blue	0.38	[0.25,0.75]	Ambiguous	wide	right	f
Ambiguity	14	2074	blue	0.4	[0.25,0.75]	Ambiguous	wide	left	j
Ambiguity	15	3153	blue	0.5	[0,1]	Ambiguous	wide	right	f
Ambiguity	16	962	blue	0.6	[0,1]	risk	wide	left	f
Ambiguity	17	1337	blue	0.54	[0,1]	risk	wide	left	f
Ambiguity	18	1190	blue	0.46	[0,1]	Ambiguous	wide	right	f
Ambiguity	19	1354	blue	0.49	[0,1]	risk	wide	right	j
Ambiguity	20	1108	blue	0.47	[0,1]	Ambiguous	wide	left	j
Ambiguity	21	773	blue	0.48	[0,1]	Ambiguous	wide	right	f
Ambiguity	22	963	blue	0.51	[0,1]	risk	wide	left	f
Ambiguity	23	734	blue	0.5	[0,1]	risk	wide	left	f
Ambiguity	24	1152	blue	0.47	[0,1]	Ambiguous	wide	right	f
Ambiguity	25	1107	blue	0.47	[0,1]	Ambiguous	wide	right	f
Ambiguity	26	783	blue	0.47	[0,1]	Ambiguous	wide	left	j
Ambiguity	27	575	blue	0.49	[0,1]	Ambiguous	wide	right	f
Ambiguity	28	661	blue	0.52	[0,1]	risk	wide	left	f
Ambiguity	29	632	blue	0.5	[0,1]	risk	wide	right	j
Ambiguity	30	1289	red	0.5	[0.25,0.75]	risk	narrow	right	j
Ambiguity	31	686	red	0.4	[0.25,0.75]	Ambiguous	narrow	right	f
Ambiguity	32	739	red	0.46	[0.25,0.75]	Ambiguous	narrow	left	j
Ambiguity	33	782	red	0.55	[0.25,0.75]	risk	narrow	right	j
Ambiguity	34	NA	red	0.52	[0.25,0.75]	Ambiguous	narrow	right	
Ambiguity	35	NA	red	0.56	[0.25,0.75]	Ambiguous	narrow	left	
Ambiguity	36	256	red	0.61	[0.25,0.75]	Ambiguous	narrow	right	f
Ambiguity	37	1028	red	0.65	[0.25,0.75]	risk	narrow	right	j
Ambiguity	38	402	red	0.61	[0.25,0.75]	risk	narrow	right	j
Ambiguity	39	651	red	0.57	[0.25,0.75]	risk	narrow	right	j
Ambiguity	40	685	red	0.51	[0.25,0.75]	risk	narrow	left	f
Ambiguity	41	797	red	0.43	[0.25,0.75]	Ambiguous	narrow	left	j
Ambiguity	42	426	red	0.46	[0.25,0.75]	Ambiguous	narrow	left	j
Ambiguity	43	775	red	0.53	[0.25,0.75]	risk	narrow	right	j
Ambiguity	44	629	red	0.51	[0.25,0.75]	risk	narrow	right	j
Ambiguity	45	398	red	0.5	[0,1]	risk	narrow	right	j
Ambiguity	46	795	red	0.39	[0,1]	Ambiguous	narrow	left	j
Ambiguity	47	736	red	0.45	[0,1]	Ambiguous	narrow	right	f
Ambiguity	48	914	red	0.49	[0,1]	Ambiguous	narrow	left	j
Ambiguity	49	537	red	0.61	[0,1]	risk	narrow	left	f
Ambiguity	50	705	red	0.56	[0,1]	risk	narrow	right	j
Ambiguity	51	662	red	0.48	[0,1]	Ambiguous	narrow	right	f
Ambiguity	52	691	red	0.53	[0,1]	risk	narrow	right	j
Ambiguity	53	802	red	0.49	[0,1]	Ambiguous	narrow	left	j
Ambiguity	54	880	red	0.49	[0,1]	Ambiguous	narrow	left	j
Ambiguity	55	915	red	0.53	[0,1]	risk	narrow	right	j
Ambiguity	56	595	red	0.51	[0,1]	risk	narrow	left	f
Ambiguity	57	685	red	0.49	[0,1]	Ambiguous	narrow	left	j
Ambiguity	58	809	red	0.47	[0,1]	Ambiguous	narrow	right	f
Ambiguity	59	605	red	0.45	[0,1]	Ambiguous	narrow	left	j
Ambiguity	60	1251	green	0.5	[0.25,0.75]	risk	skew	left	f
Ambiguity	61	692	green	0.38	[0.25,0.75]	Ambiguous	skew	left	j
Ambiguity	62	731	green	0.41	[0.25,0.75]	Ambiguous	skew	right	f
Ambiguity	63	744	green	0.49	[0.25,0.75]	Ambiguous	skew	left	j
Ambiguity	64	730	green	0.62	[0.25,0.75]	risk	skew	right	j
Ambiguity	65	1737	green	0.54	[0.25,0.75]	risk	skew	left	f
Ambiguity	66	781	green	0.47	[0.25,0.75]	Ambiguous	skew	left	j
Ambiguity	67	1274	green	0.51	[0.25,0.75]	risk	skew	left	f
Ambiguity	68	1088	green	0.5	[0.25,0.75]	Ambiguous	skew	left	j
Ambiguity	69	790	green	0.49	[0.25,0.75]	Ambiguous	skew	left	j
Ambiguity	70	543	green	0.52	[0.25,0.75]	risk	skew	left	f
Ambiguity	71	839	green	0.49	[0.25,0.75]	Ambiguous	skew	right	f
Ambiguity	72	1086	green	0.5	[0.25,0.75]	Ambiguous	skew	right	f
Ambiguity	73	530	green	0.53	[0.25,0.75]	risk	skew	left	f
Ambiguity	74	569	green	0.52	[0.25,0.75]	risk	skew	left	f
Ambiguity	75	467	green	0.5	[0,1]	risk	skew	left	f
Ambiguity	76	612	green	0.38	[0,1]	Ambiguous	skew	left	j
Ambiguity	77	695	green	0.42	[0,1]	Ambiguous	skew	left	j
Ambiguity	78	428	green	0.46	[0,1]	Ambiguous	skew	left	j
Ambiguity	79	1148	green	0.54	[0,1]	Ambiguous	skew	left	j
Ambiguity	80	658	green	0.69	[0,1]	risk	skew	left	f
Ambiguity	81	623	green	0.59	[0,1]	Ambiguous	skew	left	j
Ambiguity	82	625	green	0.61	[0,1]	risk	skew	left	f
Ambiguity	83	608	green	0.59	[0,1]	risk	skew	left	f
Ambiguity	84	508	green	0.54	[0,1]	Ambiguous	skew	left	j
Ambiguity	85	345	green	0.54	[0,1]	Ambiguous	skew	left	j
Ambiguity	86	943	green	0.54	[0,1]	Ambiguous	skew	right	f
Ambiguity	87	732	green	0.6	[0,1]	risk	skew	right	j
Ambiguity	88	843	green	0.56	[0,1]	Ambiguous	skew	right	f
Ambiguity	89	937	green	0.56	[0,1]	risk	skew	left	f
