Blocktype	tnum	rt	color	winprob	Amb	choice	dist	side	response
Ambiguity	0	4438	red	0.5	[0.25,0.75]	risk	narrow	right	j
Ambiguity	1	3192	red	0.4	[0.25,0.75]	risk	narrow	right	j
Ambiguity	2	1860	red	0.25	[0.25,0.75]	Ambiguous	narrow	right	f
Ambiguity	3	1681	red	0.32	[0.25,0.75]	Ambiguous	narrow	left	j
Ambiguity	4	2521	red	0.45	[0.25,0.75]	Ambiguous	narrow	left	j
Ambiguity	5	1715	red	0.6	[0.25,0.75]	risk	narrow	left	f
Ambiguity	6	2769	red	0.51	[0.25,0.75]	risk	narrow	left	f
Ambiguity	7	2196	red	0.38	[0.25,0.75]	Ambiguous	narrow	right	f
Ambiguity	8	1938	red	0.42	[0.25,0.75]	risk	narrow	right	j
Ambiguity	9	2587	red	0.37	[0.25,0.75]	Ambiguous	narrow	right	f
Ambiguity	10	2864	red	0.41	[0.25,0.75]	Ambiguous	narrow	right	f
Ambiguity	11	2271	red	0.44	[0.25,0.75]	Ambiguous	narrow	right	f
Ambiguity	12	1957	red	0.47	[0.25,0.75]	risk	narrow	right	j
Ambiguity	13	1876	red	0.43	[0.25,0.75]	risk	narrow	right	j
Ambiguity	14	2136	red	0.38	[0.25,0.75]	Ambiguous	narrow	left	j
Ambiguity	15	2046	red	0.5	[0,1]	risk	narrow	left	f
Ambiguity	16	2384	red	0.41	[0,1]	risk	narrow	right	j
Ambiguity	17	2831	red	0.26	[0,1]	Ambiguous	narrow	right	f
Ambiguity	18	1853	red	0.35	[0,1]	Ambiguous	narrow	right	f
Ambiguity	19	1387	red	0.44	[0,1]	risk	narrow	right	j
Ambiguity	20	2359	red	0.36	[0,1]	risk	narrow	left	f
Ambiguity	21	2888	red	0.26	[0,1]	Ambiguous	narrow	left	j
Ambiguity	22	2592	red	0.31	[0,1]	Ambiguous	narrow	left	j
Ambiguity	23	2722	red	0.38	[0,1]	risk	narrow	right	j
Ambiguity	24	1750	red	0.35	[0,1]	Ambiguous	narrow	right	f
Ambiguity	25	1290	red	0.37	[0,1]	Ambiguous	narrow	left	j
Ambiguity	26	2004	red	0.38	[0,1]	risk	narrow	right	j
Ambiguity	27	2203	red	0.35	[0,1]	risk	narrow	left	f
Ambiguity	28	2565	red	0.33	[0,1]	risk	narrow	left	f
Ambiguity	29	1171	red	0.29	[0,1]	Ambiguous	narrow	left	j
Ambiguity	30	1564	blue	0.5	[0.25,0.75]	risk	skew	right	j
Ambiguity	31	2016	blue	0.41	[0.25,0.75]	Ambiguous	skew	left	j
Ambiguity	32	1474	blue	0.47	[0.25,0.75]	risk	skew	left	f
Ambiguity	33	1499	blue	0.42	[0.25,0.75]	risk	skew	left	f
Ambiguity	34	1711	blue	0.36	[0.25,0.75]	Ambiguous	skew	left	j
Ambiguity	35	1141	blue	0.38	[0.25,0.75]	risk	skew	left	f
Ambiguity	36	1902	blue	0.37	[0.25,0.75]	Ambiguous	skew	left	j
Ambiguity	37	1896	blue	0.37	[0.25,0.75]	risk	skew	left	f
Ambiguity	38	1005	blue	0.37	[0.25,0.75]	risk	skew	left	f
Ambiguity	39	1383	blue	0.36	[0.25,0.75]	risk	skew	left	f
Ambiguity	40	1312	blue	0.33	[0.25,0.75]	Ambiguous	skew	left	j
Ambiguity	41	2396	blue	0.31	[0.25,0.75]	Ambiguous	skew	left	j
Ambiguity	42	2191	blue	0.3	[0.25,0.75]	risk	skew	right	j
Ambiguity	43	1266	blue	0.28	[0.25,0.75]	Ambiguous	skew	left	j
Ambiguity	44	1980	blue	0.3	[0.25,0.75]	risk	skew	right	j
Ambiguity	45	1205	blue	0.5	[0,1]	risk	skew	left	f
Ambiguity	46	1516	blue	0.39	[0,1]	risk	skew	right	j
Ambiguity	47	1407	blue	0.24	[0,1]	Ambiguous	skew	right	f
Ambiguity	48	1808	blue	0.34	[0,1]	risk	skew	right	j
Ambiguity	49	1621	blue	0.29	[0,1]	Ambiguous	skew	left	j
Ambiguity	50	2976	blue	0.29	[0,1]	risk	skew	right	j
Ambiguity	51	1433	blue	0.29	[0,1]	risk	skew	right	j
Ambiguity	52	1371	blue	0.27	[0,1]	risk	skew	left	f
Ambiguity	53	1978	blue	0.26	[0,1]	Ambiguous	skew	left	j
Ambiguity	54	2306	blue	0.28	[0,1]	Ambiguous	skew	right	f
Ambiguity	55	1133	blue	0.29	[0,1]	risk	skew	left	f
Ambiguity	56	1624	blue	0.29	[0,1]	risk	skew	left	f
Ambiguity	57	1298	blue	0.26	[0,1]	Ambiguous	skew	left	j
Ambiguity	58	1611	blue	0.27	[0,1]	risk	skew	right	j
Ambiguity	59	1516	blue	0.27	[0,1]	risk	skew	right	j
Ambiguity	60	2618	green	0.5	[0.25,0.75]	risk	wide	right	j
Ambiguity	61	1810	green	0.38	[0.25,0.75]	risk	wide	right	j
Ambiguity	62	1433	green	0.23	[0.25,0.75]	Ambiguous	wide	left	j
Ambiguity	63	1130	green	0.29	[0.25,0.75]	Ambiguous	wide	left	j
Ambiguity	64	1634	green	0.37	[0.25,0.75]	Ambiguous	wide	left	j
Ambiguity	65	1137	green	0.51	[0.25,0.75]	risk	wide	right	j
Ambiguity	66	1268	green	0.42	[0.25,0.75]	risk	wide	left	f
Ambiguity	67	1676	green	0.27	[0.25,0.75]	Ambiguous	wide	right	f
Ambiguity	68	2050	green	0.3	[0.25,0.75]	Ambiguous	wide	right	f
Ambiguity	69	1931	green	0.41	[0.25,0.75]	Ambiguous	wide	left	j
Ambiguity	70	1348	green	0.54	[0.25,0.75]	risk	wide	right	j
Ambiguity	71	1130	green	0.47	[0.25,0.75]	risk	wide	left	f
Ambiguity	72	1495	green	0.36	[0.25,0.75]	Ambiguous	wide	left	j
Ambiguity	73	1237	green	0.38	[0.25,0.75]	risk	wide	right	j
Ambiguity	74	1462	green	0.34	[0.25,0.75]	risk	wide	right	j
Ambiguity	75	1089	green	0.5	[0,1]	risk	wide	right	j
Ambiguity	76	1144	green	0.4	[0,1]	risk	wide	left	f
Ambiguity	77	893	green	0.24	[0,1]	Ambiguous	wide	left	j
Ambiguity	78	1713	green	0.3	[0,1]	Ambiguous	wide	left	j
Ambiguity	79	894	green	0.42	[0,1]	risk	wide	left	f
Ambiguity	80	1164	green	0.34	[0,1]	Ambiguous	wide	left	j
Ambiguity	81	1293	green	0.36	[0,1]	risk	wide	right	j
Ambiguity	82	1638	green	0.33	[0,1]	risk	wide	left	f
Ambiguity	83	1547	green	0.31	[0,1]	Ambiguous	wide	left	j
Ambiguity	84	1384	green	0.29	[0,1]	Ambiguous	wide	left	j
Ambiguity	85	1818	green	0.3	[0,1]	risk	wide	left	f
Ambiguity	86	1643	green	0.3	[0,1]	risk	wide	left	f
Ambiguity	87	897	green	0.28	[0,1]	Ambiguous	wide	left	j
Ambiguity	88	1388	green	0.27	[0,1]	risk	wide	right	j
Ambiguity	89	1234	green	0.27	[0,1]	risk	wide	right	j
