Blocktype	tnum	rt	color	winprob	Amb	choice	dist	side	response
Ambiguity	0	3668	red	0.5	[0.25,0.75]	risk	wide	left	f
Ambiguity	1	3181	red	0.4	[0.25,0.75]	Ambiguous	wide	left	j
Ambiguity	2	1823	red	0.46	[0.25,0.75]	risk	wide	left	f
Ambiguity	3	3841	red	0.42	[0.25,0.75]	risk	wide	right	j
Ambiguity	4	1274	red	0.36	[0.25,0.75]	Ambiguous	wide	left	j
Ambiguity	5	863	red	0.39	[0.25,0.75]	Ambiguous	wide	left	j
Ambiguity	6	643	red	0.39	[0.25,0.75]	Ambiguous	wide	left	j
Ambiguity	7	1068	red	0.42	[0.25,0.75]	Ambiguous	wide	left	j
Ambiguity	8	961	red	0.45	[0.25,0.75]	risk	wide	right	j
Ambiguity	9	1657	red	0.4	[0.25,0.75]	Ambiguous	wide	left	j
Ambiguity	10	1518	red	0.4	[0.25,0.75]	Ambiguous	wide	right	f
Ambiguity	11	1464	red	0.41	[0.25,0.75]	risk	wide	left	f
Ambiguity	12	1049	red	0.41	[0.25,0.75]	risk	wide	right	j
Ambiguity	13	675	red	0.39	[0.25,0.75]	Ambiguous	wide	right	f
Ambiguity	14	1280	red	0.4	[0.25,0.75]	Ambiguous	wide	left	j
Ambiguity	15	2017	red	0.5	[0,1]	risk	wide	right	j
Ambiguity	16	1107	red	0.38	[0,1]	Ambiguous	wide	right	f
Ambiguity	17	1288	red	0.44	[0,1]	risk	wide	left	f
Ambiguity	18	736	red	0.4	[0,1]	Ambiguous	wide	right	f
Ambiguity	19	1026	red	0.42	[0,1]	Ambiguous	wide	right	f
Ambiguity	20	1271	red	0.43	[0,1]	risk	wide	right	j
Ambiguity	21	2072	red	0.4	[0,1]	Ambiguous	wide	left	j
Ambiguity	22	1585	red	0.4	[0,1]	Ambiguous	wide	left	j
Ambiguity	23	1475	red	0.38	[0,1]	Ambiguous	wide	left	j
Ambiguity	24	1354	red	0.36	[0,1]	Ambiguous	wide	right	f
Ambiguity	25	1275	red	0.4	[0,1]	Ambiguous	wide	left	j
Ambiguity	26	1790	red	0.42	[0,1]	risk	wide	right	j
Ambiguity	27	948	red	0.41	[0,1]	Ambiguous	wide	right	f
Ambiguity	28	603	red	0.42	[0,1]	risk	wide	right	j
Ambiguity	29	1277	red	0.43	[0,1]	risk	wide	left	f
Ambiguity	30	2617	blue	0.5	[0.25,0.75]	risk	narrow	right	j
Ambiguity	31	1242	blue	0.41	[0.25,0.75]	Ambiguous	narrow	left	j
Ambiguity	32	2784	blue	0.44	[0.25,0.75]	Ambiguous	narrow	right	f
Ambiguity	33	673	blue	0.54	[0.25,0.75]	risk	narrow	right	j
Ambiguity	34	1318	blue	0.51	[0.25,0.75]	risk	narrow	left	f
Ambiguity	35	1129	blue	0.45	[0.25,0.75]	risk	narrow	left	f
Ambiguity	36	1368	blue	0.37	[0.25,0.75]	Ambiguous	narrow	right	f
Ambiguity	37	1081	blue	0.38	[0.25,0.75]	Ambiguous	narrow	left	j
Ambiguity	38	910	blue	0.43	[0.25,0.75]	risk	narrow	right	j
Ambiguity	39	1051	blue	0.38	[0.25,0.75]	Ambiguous	narrow	right	f
Ambiguity	40	867	blue	0.38	[0.25,0.75]	Ambiguous	narrow	right	f
Ambiguity	41	1220	blue	0.37	[0.25,0.75]	Ambiguous	narrow	left	j
Ambiguity	42	928	blue	0.42	[0.25,0.75]	Ambiguous	narrow	left	j
Ambiguity	43	986	blue	0.45	[0.25,0.75]	risk	narrow	left	f
Ambiguity	44	1715	blue	0.41	[0.25,0.75]	Ambiguous	narrow	right	f
Ambiguity	45	1656	blue	0.5	[0,1]	risk	narrow	left	f
Ambiguity	46	1298	blue	0.41	[0,1]	Ambiguous	narrow	right	f
Ambiguity	47	1935	blue	0.44	[0,1]	Ambiguous	narrow	left	j
Ambiguity	48	681	blue	0.51	[0,1]	risk	narrow	right	j
Ambiguity	49	1520	blue	0.47	[0,1]	risk	narrow	left	f
Ambiguity	50	860	blue	0.42	[0,1]	Ambiguous	narrow	left	j
Ambiguity	51	881	blue	0.42	[0,1]	Ambiguous	narrow	right	f
Ambiguity	52	779	blue	0.45	[0,1]	risk	narrow	left	f
Ambiguity	53	949	blue	0.41	[0,1]	Ambiguous	narrow	right	f
Ambiguity	54	1158	blue	0.41	[0,1]	Ambiguous	narrow	left	j
Ambiguity	55	747	blue	0.4	[0,1]	Ambiguous	narrow	right	f
Ambiguity	56	894	blue	0.42	[0,1]	Ambiguous	narrow	right	f
Ambiguity	57	745	blue	0.46	[0,1]	risk	narrow	right	j
Ambiguity	58	1679	blue	0.43	[0,1]	Ambiguous	narrow	left	j
Ambiguity	59	992	blue	0.42	[0,1]	Ambiguous	narrow	left	j
Ambiguity	60	3502	green	0.5	[0.25,0.75]	Ambiguous	skew	left	j
Ambiguity	61	689	green	0.6	[0.25,0.75]	risk	skew	right	j
Ambiguity	62	1229	green	0.56	[0.25,0.75]	Ambiguous	skew	left	j
Ambiguity	63	583	green	0.58	[0.25,0.75]	risk	skew	right	j
Ambiguity	64	807	green	0.55	[0.25,0.75]	risk	skew	right	j
Ambiguity	65	1441	green	0.51	[0.25,0.75]	Ambiguous	skew	right	f
Ambiguity	66	1425	green	0.5	[0.25,0.75]	Ambiguous	skew	left	j
Ambiguity	67	849	green	0.48	[0.25,0.75]	Ambiguous	skew	right	f
Ambiguity	68	1124	green	0.5	[0.25,0.75]	Ambiguous	skew	left	j
Ambiguity	69	1464	green	0.53	[0.25,0.75]	risk	skew	left	f
Ambiguity	70	756	green	0.5	[0.25,0.75]	Ambiguous	skew	right	f
Ambiguity	71	663	green	0.49	[0.25,0.75]	Ambiguous	skew	right	f
Ambiguity	72	841	green	0.47	[0.25,0.75]	Ambiguous	skew	left	j
Ambiguity	73	773	green	0.47	[0.25,0.75]	Ambiguous	skew	right	f
Ambiguity	74	967	green	0.51	[0.25,0.75]	risk	skew	left	f
Ambiguity	75	1161	green	0.5	[0,1]	Ambiguous	skew	left	j
Ambiguity	76	959	green	0.61	[0,1]	risk	skew	left	f
Ambiguity	77	1402	green	0.57	[0,1]	Ambiguous	skew	left	j
Ambiguity	78	712	green	0.59	[0,1]	risk	skew	left	f
Ambiguity	79	709	green	0.56	[0,1]	risk	skew	right	j
Ambiguity	80	717	green	0.52	[0,1]	risk	skew	right	j
Ambiguity	81	1064	green	0.47	[0,1]	Ambiguous	skew	left	j
Ambiguity	82	1661	green	0.45	[0,1]	Ambiguous	skew	right	f
Ambiguity	83	1200	green	0.49	[0,1]	Ambiguous	skew	left	j
Ambiguity	84	1078	green	0.5	[0,1]	Ambiguous	skew	right	f
Ambiguity	85	1023	green	0.55	[0,1]	risk	skew	left	f
Ambiguity	86	1307	green	0.53	[0,1]	Ambiguous	skew	left	j
Ambiguity	87	779	green	0.51	[0,1]	Ambiguous	skew	right	f
Ambiguity	88	896	green	0.52	[0,1]	Ambiguous	skew	left	j
Ambiguity	89	839	green	0.56	[0,1]	risk	skew	left	f
