Blocktype	tnum	rt	color	winprob	Amb	RL_feedback	choice	dist	side	response
Learning	1	1308	blue	0.5	[0,1]	win	risk	norm	right	j
Learning	2	1072	blue	0.4	[0,1]	win	Amb	norm	left	j
Learning	3	1301	blue	0.47	[0,1]	win	Amb	norm	right	f
Learning	4	636	blue	0.52	[0,1]	win	Amb	norm	left	j
Learning	5	575	blue	0.6	[0,1]	win	Amb	norm	left	j
Learning	6	486	blue	0.74	[0,1]	win	risk	norm	left	f
Learning	7	616	blue	0.67	[0,1]	win	risk	norm	left	f
Learning	8	1021	blue	0.55	[0,1]	win	risk	norm	right	j
Learning	9	666	blue	0.34	[0,1]	win	Amb	norm	left	j
Learning	10	802	blue	0.44	[0,1]	win	Amb	norm	left	j
Learning	11	869	blue	0.56	[0,1]	win	risk	norm	left	f
Learning	12	427	blue	0.48	[0,1]	win	Amb	norm	left	j
Learning	13	1321	blue	0.54	[0,1]	win	risk	norm	right	j
Learning	14	787	blue	0.52	[0,1]	win	risk	norm	right	j
Learning	15	742	blue	0.47	[0,1]	win	Amb	norm	left	j
Learning	1	1235	blue	0.5	[0,1]	lose	risk	norm	left	f
Learning	2	645	blue	0.4	[0,1]	lose	risk	norm	left	f
Learning	3	460	blue	0.23	[0,1]	lose	risk	norm	right	j
Learning	4	1783	blue	0	[0,1]	lose	Amb	norm	left	j
Learning	5	887	blue	0.12	[0,1]	lose	risk	norm	left	f
Learning	6	1322	blue	0.05	[0,1]	lose	Amb	norm	right	f
Learning	7	689	blue	0.06	[0,1]	lose	Amb	norm	left	j
Learning	8	814	blue	0.11	[0,1]	lose	Amb	norm	right	f
Learning	9	625	blue	0.17	[0,1]	lose	Amb	norm	right	f
Learning	10	445	blue	0.24	[0,1]	lose	Amb	norm	right	f
Learning	11	357	blue	0.37	[0,1]	lose	risk	norm	left	f
Learning	12	652	blue	0.3	[0,1]	lose	risk	norm	left	f
Learning	13	574	blue	0.17	[0,1]	lose	risk	norm	right	j
Learning	14	345	blue	0	[0,1]	lose	risk	norm	left	f
Learning	15	314	blue	0	[0,1]	lose	risk	norm	right	j
Learning	1	864	green	0.5	[0,1]	lose	risk	norm	right	j
Learning	2	397	green	0.39	[0,1]	lose	risk	norm	right	j
Learning	3	418	green	0.25	[0,1]	lose	risk	norm	right	j
Learning	4	598	green	0.02	[0,1]	lose	risk	norm	left	f
Learning	5	862	green	0	[0,1]	lose	Amb	norm	right	f
Learning	6	1299	green	0.19	[0,1]	lose	Amb	norm	right	f
Learning	7	742	green	0.42	[0,1]	lose	risk	norm	left	f
Learning	8	574	green	0.28	[0,1]	lose	risk	norm	right	j
Learning	9	867	green	0.09	[0,1]	lose	Amb	norm	right	f
Learning	10	935	green	0.2	[0,1]	lose	risk	norm	left	f
Learning	11	922	green	0.14	[0,1]	lose	risk	norm	left	f
Learning	12	811	green	0.08	[0,1]	lose	Amb	norm	right	f
Learning	13	781	green	0.12	[0,1]	lose	Amb	norm	right	f
Learning	14	798	green	0.15	[0,1]	lose	risk	norm	left	f
Learning	15	875	green	0.13	[0,1]	lose	Amb	norm	right	f
Learning	1	822	green	0.5	[0,1]	win	risk	norm	left	f
Learning	2	578	green	0.38	[0,1]	win	risk	norm	right	j
Learning	3	946	green	0.21	[0,1]	win	Amb	norm	right	f
Learning	4	411	green	0.29	[0,1]	win	Amb	norm	right	f
Learning	5	420	green	0.4	[0,1]	win	Amb	norm	right	f
Learning	6	597	green	0.58	[0,1]	win	Amb	norm	left	j
Learning	7	943	green	0.82	[0,1]	win	risk	norm	left	f
Learning	8	946	green	0.68	[0,1]	win	risk	norm	right	j
Learning	9	848	green	0.49	[0,1]	win	Amb	norm	right	f
Learning	10	1072	green	0.57	[0,1]	win	risk	norm	left	f
Learning	11	1035	green	0.5	[0,1]	win	risk	norm	right	j
Learning	12	920	green	0.43	[0,1]	win	Amb	norm	right	f
Learning	13	622	green	0.49	[0,1]	win	Amb	norm	left	j
Learning	14	1031	green	0.54	[0,1]	win	risk	norm	left	f
Learning	15	797	green	0.5	[0,1]	win	risk	norm	right	j
Learning	1	559	red	0.5	[0,1]	lose	risk	norm	left	f
Learning	2	645	red	0.4	[0,1]	lose	risk	norm	right	j
Learning	3	724	red	0.23	[0,1]	lose	Amb	norm	right	f
Learning	4	795	red	0.29	[0,1]	lose	risk	norm	right	j
Learning	5	958	red	0.25	[0,1]	lose	risk	norm	left	f
Learning	6	633	red	0.2	[0,1]	lose	Amb	norm	left	j
Learning	7	829	red	0.23	[0,1]	lose	Amb	norm	right	f
Learning	8	638	red	0.27	[0,1]	lose	Amb	norm	right	f
Learning	9	798	red	0.32	[0,1]	lose	risk	norm	left	f
Learning	10	477	red	0.3	[0,1]	lose	risk	norm	left	f
Learning	11	537	red	0.25	[0,1]	lose	risk	norm	right	j
Learning	12	859	red	0.19	[0,1]	lose	Amb	norm	left	j
Learning	13	1154	red	0.21	[0,1]	lose	Amb	norm	right	f
Learning	14	656	red	0.26	[0,1]	lose	risk	norm	left	f
Learning	15	808	red	0.22	[0,1]	lose	Amb	norm	right	f
Learning	1	645	red	0.5	[0,1]	win	risk	norm	left	f
Learning	2	737	red	0.4	[0,1]	win	risk	norm	right	j
Learning	3	654	red	0.23	[0,1]	win	risk	norm	left	f
Learning	4	446	red	0	[0,1]	win	risk	norm	right	j
Learning	5	890	red	0	[0,1]	win	Amb	norm	right	f
Learning	6	330	red	0.18	[0,1]	win	Amb	norm	left	j
Learning	7	644	red	0.4	[0,1]	win	risk	norm	left	f
Learning	8	627	red	0.28	[0,1]	win	Amb	norm	right	f
Learning	9	462	red	0.31	[0,1]	win	Amb	norm	right	f
Learning	10	561	red	0.42	[0,1]	win	risk	norm	left	f
Learning	11	395	red	0.36	[0,1]	win	Amb	norm	right	f
Learning	12	406	red	0.4	[0,1]	win	Amb	norm	right	f
Learning	13	485	red	0.45	[0,1]	win	Amb	norm	right	f
Learning	14	393	red	0.49	[0,1]	win	Amb	norm	right	f
Learning	15	735	red	0.54	[0,1]	win	risk	norm	left	f
