Blocktype	tnum	rt	color	winprob	Amb	RL_feedback	choice	dist	side	response
Learning	1	1948	green	0.5	[0,1]	win	risk	norm	right	j
Learning	2	2824	green	0.39	[0,1]	win	risk	norm	left	f
Learning	3	2226	green	0.25	[0,1]	win	risk	norm	left	f
Learning	4	1334	green	0.01	[0,1]	win	Amb	norm	right	f
Learning	5	1282	green	0.1	[0,1]	win	Amb	norm	left	j
Learning	6	1253	green	0.25	[0,1]	win	risk	norm	left	f
Learning	7	1182	green	0.16	[0,1]	win	Amb	norm	left	j
Learning	8	1240	green	0.2	[0,1]	win	Amb	norm	left	j
Learning	9	918	green	0.28	[0,1]	win	Amb	norm	left	j
Learning	10	1041	green	0.37	[0,1]	win	Amb	norm	left	j
Learning	11	820	green	0.49	[0,1]	win	risk	norm	left	f
Learning	12	672	green	0.41	[0,1]	win	risk	norm	left	f
Learning	13	880	green	0.29	[0,1]	win	Amb	norm	left	j
Learning	14	1137	green	0.34	[0,1]	win	risk	norm	right	j
Learning	15	1300	green	0.32	[0,1]	win	risk	norm	left	f
Learning	1	3742	red	0.5	[0,1]	win	risk	norm	right	j
Learning	2	1087	red	0.4	[0,1]	win	risk	norm	right	j
Learning	3	1518	red	0.23	[0,1]	win	Amb	norm	left	j
Learning	4	1108	red	0.31	[0,1]	win	Amb	norm	left	j
Learning	5	965	red	0.44	[0,1]	win	risk	norm	left	f
Learning	6	682	red	0.39	[0,1]	win	Amb	norm	left	j
Learning	7	987	red	0.39	[0,1]	win	Amb	norm	left	j
Learning	8	1304	red	0.41	[0,1]	win	Amb	norm	right	f
Learning	9	1324	red	0.47	[0,1]	win	risk	norm	left	f
Learning	10	2148	red	0.43	[0,1]	win	Amb	norm	right	f
Learning	11	1519	red	0.45	[0,1]	win	risk	norm	left	f
Learning	12	618	red	0.45	[0,1]	win	risk	norm	left	f
Learning	13	1086	red	0.43	[0,1]	win	Amb	norm	left	j
Learning	14	1188	red	0.44	[0,1]	win	Amb	norm	right	f
Learning	15	895	red	0.43	[0,1]	win	Amb	norm	right	f
Learning	1	3109	blue	0.5	[0,1]	win	risk	norm	left	f
Learning	2	1331	blue	0.39	[0,1]	win	Amb	norm	left	j
Learning	3	1487	blue	0.45	[0,1]	win	risk	norm	left	f
Learning	4	1165	blue	0.4	[0,1]	win	risk	norm	right	j
Learning	5	2076	blue	0.37	[0,1]	win	Amb	norm	left	j
Learning	6	1474	blue	0.4	[0,1]	win	risk	norm	left	f
Learning	7	1072	blue	0.37	[0,1]	win	Amb	norm	right	f
Learning	8	825	blue	0.34	[0,1]	win	Amb	norm	right	f
Learning	9	842	blue	0.36	[0,1]	win	risk	norm	right	j
Learning	10	1218	blue	0.36	[0,1]	win	Amb	norm	left	j
Learning	11	1207	blue	0.37	[0,1]	win	Amb	norm	right	f
Learning	12	918	blue	0.34	[0,1]	win	Amb	norm	left	j
Learning	13	1871	blue	0.35	[0,1]	win	Amb	norm	right	f
Learning	14	901	blue	0.37	[0,1]	win	Amb	norm	left	j
Learning	15	716	blue	0.38	[0,1]	win	Amb	norm	left	j
Learning	1	3018	red	0.5	[0,1]	lose	risk	norm	right	j
Learning	2	2625	red	0.4	[0,1]	lose	Amb	norm	right	f
Learning	3	1655	red	0.45	[0,1]	lose	risk	norm	right	j
Learning	4	1244	red	0.41	[0,1]	lose	Amb	norm	left	j
Learning	5	688	red	0.4	[0,1]	lose	risk	norm	left	f
Learning	6	931	red	0.37	[0,1]	lose	Amb	norm	left	j
Learning	7	985	red	0.39	[0,1]	lose	risk	norm	right	j
Learning	8	1244	red	0.39	[0,1]	lose	Amb	norm	right	f
Learning	9	1362	red	0.38	[0,1]	lose	Amb	norm	right	f
Learning	10	1725	red	0.37	[0,1]	lose	Amb	norm	left	j
Learning	11	740	red	0.37	[0,1]	lose	Amb	norm	right	f
Learning	12	748	red	0.38	[0,1]	lose	Amb	norm	right	f
Learning	13	596	red	0.38	[0,1]	lose	Amb	norm	right	f
Learning	14	1860	red	0.41	[0,1]	lose	Amb	norm	left	j
Learning	15	1121	red	0.42	[0,1]	lose	Amb	norm	left	j
Learning	1	2607	blue	0.5	[0,1]	lose	risk	norm	right	j
Learning	2	1378	blue	0.38	[0,1]	lose	Amb	norm	right	f
Learning	3	673	blue	0.45	[0,1]	lose	risk	norm	right	j
Learning	4	946	blue	0.41	[0,1]	lose	risk	norm	right	j
Learning	5	1464	blue	0.37	[0,1]	lose	Amb	norm	left	j
Learning	6	712	blue	0.4	[0,1]	lose	risk	norm	left	f
Learning	7	1220	blue	0.38	[0,1]	lose	Amb	norm	left	j
Learning	8	1408	blue	0.4	[0,1]	lose	risk	norm	right	j
Learning	9	774	blue	0.4	[0,1]	lose	risk	norm	right	j
Learning	10	848	blue	0.4	[0,1]	lose	risk	norm	left	f
Learning	11	731	blue	0.4	[0,1]	lose	risk	norm	left	f
Learning	12	792	blue	0.39	[0,1]	lose	risk	norm	right	j
Learning	13	1224	blue	0.38	[0,1]	lose	Amb	norm	left	j
Learning	14	1737	blue	0.41	[0,1]	lose	risk	norm	left	f
Learning	15	1776	blue	0.39	[0,1]	lose	Amb	norm	right	f
Learning	1	1948	green	0.5	[0,1]	lose	risk	norm	right	j
Learning	2	1664	green	0.41	[0,1]	lose	Amb	norm	right	f
Learning	3	1614	green	0.44	[0,1]	lose	Amb	norm	right	f
Learning	4	965	green	0.53	[0,1]	lose	risk	norm	left	f
Learning	5	1220	green	0.47	[0,1]	lose	Amb	norm	left	j
Learning	6	1530	green	0.48	[0,1]	lose	Amb	norm	right	f
Learning	7	625	green	0.51	[0,1]	lose	risk	norm	right	j
Learning	8	713	green	0.5	[0,1]	lose	risk	norm	left	f
Learning	9	948	green	0.48	[0,1]	lose	Amb	norm	left	j
Learning	10	949	green	0.48	[0,1]	lose	Amb	norm	right	f
Learning	11	953	green	0.51	[0,1]	lose	risk	norm	left	f
Learning	12	555	green	0.51	[0,1]	lose	risk	norm	left	f
Learning	13	670	green	0.5	[0,1]	lose	risk	norm	left	f
Learning	14	977	green	0.47	[0,1]	lose	Amb	norm	left	j
Learning	15	1326	green	0.46	[0,1]	lose	Amb	norm	right	f
