Blocktype	tnum	rt	color	winprob	Amb	RL_feedback	choice	dist	side	response
Learning	1	1676	red	0.5	[0,1]	lose	risk	norm	left	f
Learning	2	1171	red	0.4	[0,1]	lose	risk	norm	right	j
Learning	3	1306	red	0.23	[0,1]	lose	Amb	norm	left	j
Learning	4	1225	red	0.29	[0,1]	lose	Amb	norm	right	f
Learning	5	1162	red	0.41	[0,1]	lose	risk	norm	right	j
Learning	6	925	red	0.33	[0,1]	lose	Amb	norm	right	f
Learning	7	806	red	0.33	[0,1]	lose	Amb	norm	left	j
Learning	8	719	red	0.39	[0,1]	lose	Amb	norm	left	j
Learning	9	806	red	0.45	[0,1]	lose	risk	norm	left	f
Learning	10	971	red	0.41	[0,1]	lose	risk	norm	left	f
Learning	11	1136	red	0.35	[0,1]	lose	Amb	norm	left	j
Learning	12	1048	red	0.36	[0,1]	lose	Amb	norm	left	j
Learning	13	852	red	0.42	[0,1]	lose	risk	norm	right	j
Learning	14	921	red	0.4	[0,1]	lose	risk	norm	left	f
Learning	15	881	red	0.38	[0,1]	lose	Amb	norm	right	f
Learning	1	1533	green	0.5	[0,1]	win	Amb	norm	left	j
Learning	2	1520	green	0.58	[0,1]	win	risk	norm	left	f
Learning	3	1148	green	0.53	[0,1]	win	risk	norm	right	j
Learning	4	1215	green	0.45	[0,1]	win	Amb	norm	right	f
Learning	5	1571	green	0.49	[0,1]	win	Amb	norm	left	j
Learning	6	926	green	0.53	[0,1]	win	risk	norm	left	f
Learning	7	1081	green	0.5	[0,1]	win	Amb	norm	left	j
Learning	8	1173	green	0.51	[0,1]	win	risk	norm	right	j
Learning	9	1146	green	0.49	[0,1]	win	Amb	norm	right	f
Learning	10	1009	green	0.46	[0,1]	win	risk	norm	left	f
Learning	11	922	green	0.44	[0,1]	win	Amb	norm	left	j
Learning	12	1045	green	0.46	[0,1]	win	Amb	norm	left	j
Learning	13	1158	green	0.47	[0,1]	win	Amb	norm	right	f
Learning	14	999	green	0.44	[0,1]	win	Amb	norm	left	j
Learning	15	1265	green	0.43	[0,1]	win	Amb	norm	right	f
Learning	1	739	blue	0.5	[0,1]	lose	risk	norm	left	f
Learning	2	1134	blue	0.39	[0,1]	lose	risk	norm	left	f
Learning	3	1038	blue	0.24	[0,1]	lose	Amb	norm	right	f
Learning	4	602	blue	0.34	[0,1]	lose	Amb	norm	left	j
Learning	5	685	blue	0.45	[0,1]	lose	Amb	norm	right	f
Learning	6	692	blue	0.63	[0,1]	lose	Amb	norm	right	f
Learning	7	889	blue	0.86	[0,1]	lose	risk	norm	right	j
Learning	8	632	blue	0.71	[0,1]	lose	risk	norm	right	j
Learning	9	909	blue	0.52	[0,1]	lose	risk	norm	right	j
Learning	10	755	blue	0.24	[0,1]	lose	Amb	norm	right	f
Learning	11	752	blue	0.39	[0,1]	lose	Amb	norm	left	j
Learning	12	1088	blue	0.62	[0,1]	lose	risk	norm	left	f
Learning	13	858	blue	0.5	[0,1]	lose	risk	norm	left	f
Learning	14	1219	blue	0.32	[0,1]	lose	Amb	norm	right	f
Learning	15	2004	blue	0.4	[0,1]	lose	risk	norm	left	f
Learning	1	841	green	0.5	[0,1]	lose	risk	norm	left	f
Learning	2	960	green	0.4	[0,1]	lose	risk	norm	left	f
Learning	3	915	green	0.24	[0,1]	lose	Amb	norm	left	j
Learning	4	1440	green	0.34	[0,1]	lose	Amb	norm	left	j
Learning	5	759	green	0.42	[0,1]	lose	risk	norm	left	f
Learning	6	995	green	0.34	[0,1]	lose	Amb	norm	left	j
Learning	7	812	green	0.36	[0,1]	lose	Amb	norm	left	j
Learning	8	554	green	0.39	[0,1]	lose	Amb	norm	left	j
Learning	9	940	green	0.46	[0,1]	lose	Amb	norm	right	f
Learning	10	1422	green	0.53	[0,1]	lose	risk	norm	left	f
Learning	11	1165	green	0.48	[0,1]	lose	risk	norm	left	f
Learning	12	1901	green	0.39	[0,1]	lose	Amb	norm	right	f
Learning	13	1012	green	0.45	[0,1]	lose	risk	norm	right	j
Learning	14	1009	green	0.41	[0,1]	lose	risk	norm	left	f
Learning	15	818	green	0.36	[0,1]	lose	Amb	norm	left	j
Learning	1	1101	red	0.5	[0,1]	win	risk	norm	right	j
Learning	2	1613	red	0.41	[0,1]	win	risk	norm	right	j
Learning	3	890	red	0.27	[0,1]	win	Amb	norm	left	j
Learning	4	995	red	0.34	[0,1]	win	Amb	norm	right	f
Learning	5	1065	red	0.46	[0,1]	win	risk	norm	left	f
Learning	6	1179	red	0.39	[0,1]	win	Amb	norm	right	f
Learning	7	947	red	0.42	[0,1]	win	risk	norm	right	j
Learning	8	1010	red	0.41	[0,1]	win	risk	norm	right	j
Learning	9	933	red	0.39	[0,1]	win	Amb	norm	left	j
Learning	10	791	red	0.41	[0,1]	win	risk	norm	right	j
Learning	11	919	red	0.39	[0,1]	win	Amb	norm	left	j
Learning	12	1278	red	0.36	[0,1]	win	Amb	norm	right	f
Learning	13	940	red	0.38	[0,1]	win	Amb	norm	left	j
Learning	14	832	red	0.38	[0,1]	win	Amb	norm	left	j
Learning	15	845	red	0.39	[0,1]	win	Amb	norm	left	j
Learning	1	1161	blue	0.5	[0,1]	win	Amb	norm	right	f
Learning	2	631	blue	0.59	[0,1]	win	Amb	norm	left	j
Learning	3	1780	blue	0.75	[0,1]	win	risk	norm	right	j
Learning	4	1281	blue	0.66	[0,1]	win	risk	norm	left	f
Learning	5	1201	blue	0.56	[0,1]	win	Amb	norm	left	j
Learning	6	718	blue	0.61	[0,1]	win	risk	norm	right	j
Learning	7	1346	blue	0.58	[0,1]	win	Amb	norm	left	j
Learning	8	1253	blue	0.57	[0,1]	win	Amb	norm	left	j
Learning	9	1545	blue	0.6	[0,1]	win	risk	norm	right	j
Learning	10	690	blue	0.6	[0,1]	win	risk	norm	right	j
Learning	11	1265	blue	0.57	[0,1]	win	Amb	norm	left	j
Learning	12	914	blue	0.58	[0,1]	win	Amb	norm	left	j
Learning	13	996	blue	0.59	[0,1]	win	Amb	norm	left	j
Learning	14	1326	blue	0.61	[0,1]	win	risk	norm	left	f
Learning	15	999	blue	0.61	[0,1]	win	risk	norm	left	f
