Blocktype	tnum	rt	color	winprob	Amb	choice	dist	side	response
Ambiguity	0	2643	red	0.5	[0.25,0.75]	risk	wide	right	j
Ambiguity	1	2558	red	0.38	[0.25,0.75]	Ambiguous	wide	right	f
Ambiguity	2	2696	red	0.41	[0.25,0.75]	Ambiguous	wide	right	f
Ambiguity	3	3536	red	0.47	[0.25,0.75]	risk	wide	right	j
Ambiguity	4	3124	red	0.43	[0.25,0.75]	risk	wide	left	f
Ambiguity	5	1468	red	0.36	[0.25,0.75]	Ambiguous	wide	left	j
Ambiguity	6	2407	red	0.37	[0.25,0.75]	Ambiguous	wide	right	f
Ambiguity	7	1272	red	0.43	[0.25,0.75]	risk	wide	right	j
Ambiguity	8	1303	red	0.39	[0.25,0.75]	Ambiguous	wide	right	f
Ambiguity	9	1475	red	0.41	[0.25,0.75]	risk	wide	right	j
Ambiguity	10	1632	red	0.38	[0.25,0.75]	Ambiguous	wide	right	f
Ambiguity	11	1880	red	0.35	[0.25,0.75]	Ambiguous	wide	left	j
Ambiguity	12	2834	red	0.32	[0.25,0.75]	Ambiguous	wide	right	f
Ambiguity	13	1649	red	0.33	[0.25,0.75]	Ambiguous	wide	left	j
Ambiguity	14	1037	red	0.32	[0.25,0.75]	Ambiguous	wide	left	j
Ambiguity	15	1829	red	0.5	[0,1]	risk	wide	right	j
Ambiguity	16	3793	red	0.38	[0,1]	Ambiguous	wide	left	j
Ambiguity	17	1308	red	0.4	[0,1]	risk	wide	left	f
Ambiguity	18	3109	red	0.38	[0,1]	risk	wide	left	f
Ambiguity	19	1086	red	0.33	[0,1]	Ambiguous	wide	left	j
Ambiguity	20	1013	red	0.32	[0,1]	Ambiguous	wide	left	j
Ambiguity	21	996	red	0.35	[0,1]	risk	wide	left	f
Ambiguity	22	900	red	0.35	[0,1]	risk	wide	left	f
Ambiguity	23	1948	red	0.34	[0,1]	Ambiguous	wide	right	f
Ambiguity	24	1459	red	0.32	[0,1]	risk	wide	right	j
Ambiguity	25	1349	red	0.29	[0,1]	risk	wide	right	j
Ambiguity	26	1756	red	0.27	[0,1]	Ambiguous	wide	left	j
Ambiguity	27	1307	red	0.24	[0,1]	risk	wide	left	f
Ambiguity	28	716	red	0.22	[0,1]	risk	wide	left	f
Ambiguity	29	1114	red	0.2	[0,1]	risk	wide	right	j
Ambiguity	30	3004	blue	0.5	[0.25,0.75]	Ambiguous	narrow	left	j
Ambiguity	31	2722	blue	0.61	[0.25,0.75]	risk	narrow	left	f
Ambiguity	32	3841	blue	0.57	[0.25,0.75]	risk	narrow	right	j
Ambiguity	33	1789	blue	0.5	[0.25,0.75]	Ambiguous	narrow	right	f
Ambiguity	34	4418	blue	0.53	[0.25,0.75]	Ambiguous	narrow	right	f
Ambiguity	35	2088	blue	0.61	[0.25,0.75]	risk	narrow	left	f
Ambiguity	36	1362	blue	0.58	[0.25,0.75]	risk	narrow	right	j
Ambiguity	37	1015	blue	0.55	[0.25,0.75]	Ambiguous	narrow	right	f
Ambiguity	38	2391	blue	0.54	[0.25,0.75]	Ambiguous	narrow	left	j
Ambiguity	39	1330	blue	0.57	[0.25,0.75]	Ambiguous	narrow	left	j
Ambiguity	40	1000	blue	0.59	[0.25,0.75]	risk	narrow	left	f
Ambiguity	41	879	blue	0.58	[0.25,0.75]	risk	narrow	left	f
Ambiguity	42	1616	blue	0.55	[0.25,0.75]	Ambiguous	narrow	left	j
Ambiguity	43	2207	blue	0.57	[0.25,0.75]	risk	narrow	left	f
Ambiguity	44	1214	blue	0.57	[0.25,0.75]	risk	narrow	right	j
Ambiguity	45	3239	blue	0.5	[0,1]	Ambiguous	narrow	left	j
Ambiguity	46	2461	blue	0.61	[0,1]	risk	narrow	left	f
Ambiguity	47	902	blue	0.57	[0,1]	risk	narrow	left	f
Ambiguity	48	2134	blue	0.48	[0,1]	Ambiguous	narrow	right	f
Ambiguity	49	2365	blue	0.51	[0,1]	Ambiguous	narrow	right	f
Ambiguity	50	2207	blue	0.56	[0,1]	risk	narrow	left	f
Ambiguity	51	2509	blue	0.54	[0,1]	risk	narrow	right	j
Ambiguity	52	1628	blue	0.51	[0,1]	Ambiguous	narrow	left	j
Ambiguity	53	1691	blue	0.53	[0,1]	Ambiguous	narrow	left	j
Ambiguity	54	1589	blue	0.57	[0,1]	risk	narrow	right	j
Ambiguity	55	2756	blue	0.56	[0,1]	risk	narrow	left	f
Ambiguity	56	1263	blue	0.53	[0,1]	Ambiguous	narrow	right	f
Ambiguity	57	1746	blue	0.54	[0,1]	Ambiguous	narrow	left	j
Ambiguity	58	1211	blue	0.55	[0,1]	risk	narrow	left	f
Ambiguity	59	826	blue	0.55	[0,1]	risk	narrow	left	f
Ambiguity	60	2842	green	0.5	[0.25,0.75]	Ambiguous	skew	right	f
Ambiguity	61	NA	green	0.62	[0.25,0.75]	Ambiguous	skew	left	
Ambiguity	62	1951	green	0.77	[0.25,0.75]	risk	skew	left	f
Ambiguity	63	1400	green	0.69	[0.25,0.75]	risk	skew	right	j
Ambiguity	64	1417	green	0.58	[0.25,0.75]	Ambiguous	skew	left	j
Ambiguity	65	1432	green	0.65	[0.25,0.75]	Ambiguous	skew	right	f
Ambiguity	66	1321	green	0.75	[0.25,0.75]	risk	skew	right	j
Ambiguity	67	944	green	0.71	[0.25,0.75]	risk	skew	right	j
Ambiguity	68	1631	green	0.65	[0.25,0.75]	risk	skew	left	f
Ambiguity	69	1016	green	0.56	[0.25,0.75]	Ambiguous	skew	right	f
Ambiguity	70	1263	green	0.61	[0.25,0.75]	Ambiguous	skew	left	j
Ambiguity	71	2207	green	0.69	[0.25,0.75]	risk	skew	right	j
Ambiguity	72	1054	green	0.63	[0.25,0.75]	Ambiguous	skew	right	f
Ambiguity	73	1589	green	0.65	[0.25,0.75]	Ambiguous	skew	right	f
Ambiguity	74	1399	green	0.66	[0.25,0.75]	risk	skew	left	f
Ambiguity	75	1181	green	0.5	[0,1]	Ambiguous	skew	left	j
Ambiguity	76	1376	green	0.58	[0,1]	Ambiguous	skew	right	f
Ambiguity	77	1228	green	0.71	[0,1]	risk	skew	right	j
Ambiguity	78	1389	green	0.61	[0,1]	Ambiguous	skew	right	f
Ambiguity	79	1788	green	0.64	[0,1]	Ambiguous	skew	left	j
Ambiguity	80	771	green	0.67	[0,1]	risk	skew	left	f
Ambiguity	81	972	green	0.63	[0,1]	Ambiguous	skew	right	f
Ambiguity	82	1558	green	0.64	[0,1]	risk	skew	left	f
Ambiguity	83	1753	green	0.64	[0,1]	risk	skew	right	j
Ambiguity	84	1075	green	0.62	[0,1]	Ambiguous	skew	left	j
Ambiguity	85	795	green	0.65	[0,1]	risk	skew	left	f
Ambiguity	86	892	green	0.66	[0,1]	risk	skew	left	f
Ambiguity	87	880	green	0.65	[0,1]	risk	skew	left	f
Ambiguity	88	1435	green	0.64	[0,1]	Ambiguous	skew	right	f
Ambiguity	89	1306	green	0.62	[0,1]	Ambiguous	skew	right	f
