Blocktype	tnum	rt	color	winprob	Amb	choice	dist	side	response
Ambiguity	0	2902	green	0.5	[0.25,0.75]	risk	wide	right	j
Ambiguity	1	3208	green	0.39	[0.25,0.75]	Ambiguous	wide	left	j
Ambiguity	2	2862	green	0.42	[0.25,0.75]	Ambiguous	wide	right	f
Ambiguity	3	2766	green	0.49	[0.25,0.75]	Ambiguous	wide	left	j
Ambiguity	4	1834	green	0.57	[0.25,0.75]	risk	wide	left	f
Ambiguity	5	2280	green	0.52	[0.25,0.75]	risk	wide	right	j
Ambiguity	6	2392	green	0.43	[0.25,0.75]	Ambiguous	wide	right	f
Ambiguity	7	3219	green	0.47	[0.25,0.75]	Ambiguous	wide	right	f
Ambiguity	8	3451	green	0.52	[0.25,0.75]	risk	wide	left	f
Ambiguity	9	1334	green	0.47	[0.25,0.75]	Ambiguous	wide	left	j
Ambiguity	10	1756	green	0.46	[0.25,0.75]	Ambiguous	wide	right	f
Ambiguity	11	2333	green	0.49	[0.25,0.75]	Ambiguous	wide	right	f
Ambiguity	12	3344	green	0.5	[0.25,0.75]	risk	wide	right	j
Ambiguity	13	2795	green	0.49	[0.25,0.75]	Ambiguous	wide	left	j
Ambiguity	14	2375	green	0.48	[0.25,0.75]	Ambiguous	wide	right	f
Ambiguity	15	4195	green	0.5	[0,1]	Ambiguous	wide	left	j
Ambiguity	16	2446	green	0.57	[0,1]	risk	wide	right	j
Ambiguity	17	3557	green	0.53	[0,1]	Ambiguous	wide	right	f
Ambiguity	18	1620	green	0.56	[0,1]	risk	wide	right	j
Ambiguity	19	1485	green	0.56	[0,1]	risk	wide	right	j
Ambiguity	20	2962	green	0.54	[0,1]	risk	wide	right	j
Ambiguity	21	1024	green	0.49	[0,1]	Ambiguous	wide	right	f
Ambiguity	22	2145	green	0.52	[0,1]	risk	wide	right	j
Ambiguity	23	1644	green	0.52	[0,1]	risk	wide	left	f
Ambiguity	24	1083	green	0.49	[0,1]	Ambiguous	wide	right	f
Ambiguity	25	1491	green	0.5	[0,1]	Ambiguous	wide	right	f
Ambiguity	26	3026	green	0.53	[0,1]	risk	wide	right	j
Ambiguity	27	1819	green	0.53	[0,1]	risk	wide	right	j
Ambiguity	28	1154	green	0.5	[0,1]	Ambiguous	wide	left	j
Ambiguity	29	1161	green	0.51	[0,1]	Ambiguous	wide	right	f
Ambiguity	30	NA	red	0.5	[0.25,0.75]	Ambiguous	narrow	left	
Ambiguity	31	825	red	0.57	[0.25,0.75]	risk	narrow	right	j
Ambiguity	32	1358	red	0.51	[0.25,0.75]	Ambiguous	narrow	left	j
Ambiguity	33	1408	red	0.56	[0.25,0.75]	risk	narrow	left	f
Ambiguity	34	874	red	0.56	[0.25,0.75]	risk	narrow	left	f
Ambiguity	35	798	red	0.55	[0.25,0.75]	risk	narrow	left	f
Ambiguity	36	1839	red	0.5	[0.25,0.75]	risk	narrow	right	j
Ambiguity	37	1104	red	0.46	[0.25,0.75]	Ambiguous	narrow	left	j
Ambiguity	38	2153	red	0.5	[0.25,0.75]	risk	narrow	left	f
Ambiguity	39	1009	red	0.49	[0.25,0.75]	Ambiguous	narrow	left	j
Ambiguity	40	1056	red	0.5	[0.25,0.75]	risk	narrow	left	f
Ambiguity	41	1240	red	0.51	[0.25,0.75]	risk	narrow	left	f
Ambiguity	42	1527	red	0.5	[0.25,0.75]	risk	narrow	left	f
Ambiguity	43	1778	red	0.5	[0.25,0.75]	Ambiguous	narrow	left	j
Ambiguity	44	2402	red	0.5	[0.25,0.75]	risk	narrow	left	f
Ambiguity	45	2547	red	0.5	[0,1]	risk	narrow	left	f
Ambiguity	46	2268	red	0.39	[0,1]	Ambiguous	narrow	left	j
Ambiguity	47	1346	red	0.42	[0,1]	Ambiguous	narrow	left	j
Ambiguity	48	2543	red	0.48	[0,1]	Ambiguous	narrow	right	f
Ambiguity	49	1124	red	0.58	[0,1]	risk	narrow	right	j
Ambiguity	50	2232	red	0.51	[0,1]	risk	narrow	left	f
Ambiguity	51	1005	red	0.41	[0,1]	Ambiguous	narrow	right	f
Ambiguity	52	1204	red	0.43	[0,1]	Ambiguous	narrow	right	f
Ambiguity	53	1616	red	0.5	[0,1]	risk	narrow	left	f
Ambiguity	54	1335	red	0.45	[0,1]	Ambiguous	narrow	left	j
Ambiguity	55	1642	red	0.45	[0,1]	Ambiguous	narrow	left	j
Ambiguity	56	1230	red	0.44	[0,1]	Ambiguous	narrow	right	f
Ambiguity	57	948	red	0.5	[0,1]	Ambiguous	narrow	right	f
Ambiguity	58	1046	red	0.54	[0,1]	risk	narrow	right	j
Ambiguity	59	1109	red	0.51	[0,1]	risk	narrow	right	j
Ambiguity	60	2320	blue	0.5	[0.25,0.75]	Ambiguous	skew	right	f
Ambiguity	61	1569	blue	0.62	[0.25,0.75]	risk	skew	left	f
Ambiguity	62	1373	blue	0.57	[0.25,0.75]	risk	skew	left	f
Ambiguity	63	939	blue	0.49	[0.25,0.75]	Ambiguous	skew	left	j
Ambiguity	64	1383	blue	0.53	[0.25,0.75]	risk	skew	right	j
Ambiguity	65	1120	blue	0.51	[0.25,0.75]	Ambiguous	skew	left	j
Ambiguity	66	1633	blue	0.53	[0.25,0.75]	Ambiguous	skew	right	f
Ambiguity	67	1068	blue	0.53	[0.25,0.75]	Ambiguous	skew	left	j
Ambiguity	68	1130	blue	0.53	[0.25,0.75]	Ambiguous	skew	left	j
Ambiguity	69	1387	blue	0.57	[0.25,0.75]	risk	skew	left	f
Ambiguity	70	1053	blue	0.55	[0.25,0.75]	risk	skew	left	f
Ambiguity	71	828	blue	0.53	[0.25,0.75]	Ambiguous	skew	left	j
Ambiguity	72	1713	blue	0.55	[0.25,0.75]	Ambiguous	skew	left	j
Ambiguity	73	949	blue	0.57	[0.25,0.75]	risk	skew	left	f
Ambiguity	74	1398	blue	0.56	[0.25,0.75]	risk	skew	left	f
Ambiguity	75	1330	blue	0.5	[0,1]	Ambiguous	skew	left	j
Ambiguity	76	1314	blue	0.6	[0,1]	risk	skew	left	f
Ambiguity	77	1703	blue	0.53	[0,1]	Ambiguous	skew	right	f
Ambiguity	78	1458	blue	0.58	[0,1]	Ambiguous	skew	left	j
Ambiguity	79	922	blue	0.63	[0,1]	risk	skew	left	f
Ambiguity	80	874	blue	0.59	[0,1]	risk	skew	left	f
Ambiguity	81	1143	blue	0.57	[0,1]	risk	skew	left	f
Ambiguity	82	1398	blue	0.53	[0,1]	Ambiguous	skew	right	f
Ambiguity	83	1697	blue	0.57	[0,1]	risk	skew	left	f
Ambiguity	84	1765	blue	0.54	[0,1]	Ambiguous	skew	left	j
Ambiguity	85	1168	blue	0.57	[0,1]	risk	skew	left	f
Ambiguity	86	1273	blue	0.55	[0,1]	Ambiguous	skew	left	j
Ambiguity	87	824	blue	0.53	[0,1]	Ambiguous	skew	left	j
Ambiguity	88	1175	blue	0.5	[0,1]	Ambiguous	skew	right	f
Ambiguity	89	886	blue	0.51	[0,1]	Ambiguous	skew	right	f
