Blocktype	tnum	rt	color	winprob	Amb	RL_feedback	choice	dist	side	response
Learning	1	2646	red	0.5	[0,1]	lose	risk	norm	left	f
Learning	2	2907	red	0.41	[0,1]	lose	risk	norm	left	f
Learning	3	974	red	0.25	[0,1]	lose	Amb	norm	left	j
Learning	4	922	red	0.33	[0,1]	lose	Amb	norm	left	j
Learning	5	525	red	0.44	[0,1]	lose	risk	norm	left	f
Learning	6	1014	red	0.37	[0,1]	lose	Amb	norm	right	f
Learning	7	667	red	0.38	[0,1]	lose	Amb	norm	left	j
Learning	8	478	red	0.44	[0,1]	lose	Amb	norm	left	j
Learning	9	639	red	0.47	[0,1]	lose	risk	norm	right	j
Learning	10	1048	red	0.44	[0,1]	lose	risk	norm	left	f
Learning	11	394	red	0.4	[0,1]	lose	risk	norm	left	f
Learning	12	384	red	0.34	[0,1]	lose	risk	norm	left	f
Learning	13	290	red	0.23	[0,1]	lose	risk	norm	left	f
Learning	14	48	red	0.05	[0,1]	lose	risk	norm	left	f
Learning	15	259	red	0	[0,1]	lose	risk	norm	left	f
Learning	1	969	blue	0.5	[0,1]	win	Amb	norm	left	j
Learning	2	249	blue	0.58	[0,1]	win	risk	norm	right	j
Learning	3	384	blue	0.52	[0,1]	win	risk	norm	right	j
Learning	4	674	blue	0.45	[0,1]	win	Amb	norm	left	j
Learning	5	670	blue	0.47	[0,1]	win	Amb	norm	left	j
Learning	6	411	blue	0.55	[0,1]	win	Amb	norm	left	j
Learning	7	687	blue	0.61	[0,1]	win	risk	norm	left	f
Learning	8	373	blue	0.56	[0,1]	win	risk	norm	left	f
Learning	9	536	blue	0.48	[0,1]	win	risk	norm	right	j
Learning	10	732	blue	0.37	[0,1]	win	Amb	norm	left	j
Learning	11	571	blue	0.44	[0,1]	win	risk	norm	left	f
Learning	12	693	blue	0.43	[0,1]	win	Amb	norm	right	f
Learning	13	585	blue	0.44	[0,1]	win	Amb	norm	left	j
Learning	14	498	blue	0.48	[0,1]	win	Amb	norm	left	j
Learning	15	852	blue	0.48	[0,1]	win	Amb	norm	left	j
Learning	1	1162	blue	0.5	[0,1]	lose	risk	norm	left	f
Learning	2	475	blue	0.39	[0,1]	lose	risk	norm	right	j
Learning	3	518	blue	0.25	[0,1]	lose	risk	norm	left	f
Learning	4	749	blue	0.01	[0,1]	lose	Amb	norm	right	f
Learning	5	622	blue	0.12	[0,1]	lose	Amb	norm	right	f
Learning	6	789	blue	0.31	[0,1]	lose	Amb	norm	left	j
Learning	7	408	blue	0.56	[0,1]	lose	Amb	norm	left	j
Learning	8	773	blue	0.92	[0,1]	lose	risk	norm	right	j
Learning	9	530	blue	0.72	[0,1]	lose	risk	norm	right	j
Learning	10	833	blue	0.43	[0,1]	lose	Amb	norm	left	j
Learning	11	1570	blue	0.54	[0,1]	lose	risk	norm	right	j
Learning	12	1332	blue	0.47	[0,1]	lose	risk	norm	right	j
Learning	13	641	blue	0.36	[0,1]	lose	Amb	norm	left	j
Learning	14	860	blue	0.42	[0,1]	lose	Amb	norm	right	f
Learning	15	1013	blue	0.5	[0,1]	lose	risk	norm	left	f
Learning	1	1044	green	0.5	[0,1]	lose	risk	norm	left	f
Learning	2	696	green	0.4	[0,1]	lose	Amb	norm	left	j
Learning	3	1355	green	0.44	[0,1]	lose	risk	norm	left	f
Learning	4	638	green	0.4	[0,1]	lose	Amb	norm	right	f
Learning	5	442	green	0.39	[0,1]	lose	Amb	norm	right	f
Learning	6	797	green	0.39	[0,1]	lose	Amb	norm	right	f
Learning	7	712	green	0.39	[0,1]	lose	Amb	norm	right	f
Learning	8	489	green	0.4	[0,1]	lose	Amb	norm	left	j
Learning	9	516	green	0.47	[0,1]	lose	Amb	norm	left	j
Learning	10	738	green	0.58	[0,1]	lose	risk	norm	right	j
Learning	11	957	green	0.52	[0,1]	lose	risk	norm	left	f
Learning	12	721	green	0.44	[0,1]	lose	Amb	norm	right	f
Learning	13	637	green	0.49	[0,1]	lose	Amb	norm	left	j
Learning	14	459	green	0.53	[0,1]	lose	Amb	norm	right	f
Learning	15	646	green	0.63	[0,1]	lose	risk	norm	left	f
Learning	1	1106	red	0.5	[0,1]	win	risk	norm	left	f
Learning	2	1071	red	0.41	[0,1]	win	Amb	norm	right	f
Learning	3	691	red	0.46	[0,1]	win	Amb	norm	right	f
Learning	4	389	red	0.55	[0,1]	win	Amb	norm	right	f
Learning	5	644	red	0.66	[0,1]	win	risk	norm	right	j
Learning	6	379	red	0.61	[0,1]	win	risk	norm	right	j
Learning	7	346	red	0.51	[0,1]	win	risk	norm	right	j
Learning	8	712	red	0.36	[0,1]	win	Amb	norm	left	j
Learning	9	691	red	0.43	[0,1]	win	Amb	norm	left	j
Learning	10	459	red	0.49	[0,1]	win	risk	norm	right	j
Learning	11	706	red	0.44	[0,1]	win	Amb	norm	left	j
Learning	12	967	red	0.46	[0,1]	win	risk	norm	left	f
Learning	13	704	red	0.45	[0,1]	win	risk	norm	right	j
Learning	14	550	red	0.42	[0,1]	win	Amb	norm	right	f
Learning	15	696	red	0.45	[0,1]	win	risk	norm	left	f
Learning	1	1126	green	0.5	[0,1]	win	risk	norm	left	f
Learning	2	541	green	0.4	[0,1]	win	Amb	norm	left	j
Learning	3	1791	green	0.46	[0,1]	win	Amb	norm	right	f
Learning	4	799	green	0.51	[0,1]	win	risk	norm	left	f
Learning	5	796	green	0.46	[0,1]	win	Amb	norm	left	j
Learning	6	739	green	0.48	[0,1]	win	Amb	norm	left	j
Learning	7	380	green	0.53	[0,1]	win	Amb	norm	left	j
Learning	8	590	green	0.55	[0,1]	win	risk	norm	right	j
Learning	9	720	green	0.54	[0,1]	win	risk	norm	right	j
Learning	10	564	green	0.49	[0,1]	win	Amb	norm	left	j
Learning	11	789	green	0.53	[0,1]	win	Amb	norm	left	j
Learning	12	846	green	0.56	[0,1]	win	risk	norm	left	f
Learning	13	814	green	0.53	[0,1]	win	risk	norm	left	f
Learning	14	644	green	0.49	[0,1]	win	Amb	norm	left	j
Learning	15	442	green	0.48	[0,1]	win	Amb	norm	left	j
