Blocktype	tnum	rt	color	winprob	Amb	choice	dist	side	response
Ambiguity	0	1936	green	0.5	[0.25,0.75]	Ambiguous	skew	right	f
Ambiguity	1	1771	green	0.6	[0.25,0.75]	risk	skew	left	f
Ambiguity	2	2002	green	0.53	[0.25,0.75]	Ambiguous	skew	left	j
Ambiguity	3	1086	green	0.56	[0.25,0.75]	risk	skew	right	j
Ambiguity	4	1049	green	0.56	[0.25,0.75]	Ambiguous	skew	right	f
Ambiguity	5	1176	green	0.59	[0.25,0.75]	risk	skew	left	f
Ambiguity	6	1353	green	0.58	[0.25,0.75]	risk	skew	right	j
Ambiguity	7	1455	green	0.57	[0.25,0.75]	risk	skew	right	j
Ambiguity	8	1883	green	0.54	[0.25,0.75]	Ambiguous	skew	left	j
Ambiguity	9	1659	green	0.54	[0.25,0.75]	risk	skew	right	j
Ambiguity	10	1223	green	0.53	[0.25,0.75]	risk	skew	left	f
Ambiguity	11	1217	green	0.51	[0.25,0.75]	risk	skew	left	f
Ambiguity	12	924	green	0.49	[0.25,0.75]	Ambiguous	skew	left	j
Ambiguity	13	1049	green	0.5	[0.25,0.75]	risk	skew	right	j
Ambiguity	14	874	green	0.5	[0.25,0.75]	risk	skew	left	f
Ambiguity	15	493	green	0.5	[0,1]	risk	skew	right	j
Ambiguity	16	1679	green	0.4	[0,1]	Ambiguous	skew	right	f
Ambiguity	17	878	green	0.43	[0,1]	Ambiguous	skew	right	f
Ambiguity	18	1531	green	0.51	[0,1]	risk	skew	left	f
Ambiguity	19	1363	green	0.45	[0,1]	risk	skew	right	j
Ambiguity	20	1319	green	0.4	[0,1]	Ambiguous	skew	left	j
Ambiguity	21	2209	green	0.44	[0,1]	risk	skew	right	j
Ambiguity	22	1022	green	0.44	[0,1]	risk	skew	right	j
Ambiguity	23	690	green	0.43	[0,1]	risk	skew	right	j
Ambiguity	24	1649	green	0.39	[0,1]	Ambiguous	skew	left	j
Ambiguity	25	800	green	0.39	[0,1]	Ambiguous	skew	left	j
Ambiguity	26	534	green	0.39	[0,1]	Ambiguous	skew	left	j
Ambiguity	27	2124	green	0.41	[0,1]	risk	skew	left	f
Ambiguity	28	864	green	0.39	[0,1]	Ambiguous	skew	left	j
Ambiguity	29	1715	green	0.41	[0,1]	risk	skew	right	j
Ambiguity	30	1750	blue	0.5	[0.25,0.75]	risk	narrow	left	f
Ambiguity	31	2061	blue	0.41	[0.25,0.75]	Ambiguous	narrow	left	j
Ambiguity	32	1283	blue	0.46	[0.25,0.75]	Ambiguous	narrow	left	j
Ambiguity	33	1309	blue	0.55	[0.25,0.75]	risk	narrow	right	j
Ambiguity	34	839	blue	0.51	[0.25,0.75]	risk	narrow	left	f
Ambiguity	35	637	blue	0.43	[0.25,0.75]	Ambiguous	narrow	left	j
Ambiguity	36	580	blue	0.43	[0.25,0.75]	Ambiguous	narrow	left	j
Ambiguity	37	410	blue	0.48	[0.25,0.75]	Ambiguous	narrow	left	j
Ambiguity	38	1569	blue	0.51	[0.25,0.75]	risk	narrow	right	j
Ambiguity	39	2029	blue	0.46	[0.25,0.75]	Ambiguous	narrow	right	f
Ambiguity	40	1397	blue	0.49	[0.25,0.75]	risk	narrow	left	f
Ambiguity	41	623	blue	0.49	[0.25,0.75]	risk	narrow	left	f
Ambiguity	42	849	blue	0.49	[0.25,0.75]	risk	narrow	right	j
Ambiguity	43	562	blue	0.45	[0.25,0.75]	risk	narrow	left	f
Ambiguity	44	1122	blue	0.42	[0.25,0.75]	Ambiguous	narrow	right	f
Ambiguity	45	968	blue	0.5	[0,1]	risk	narrow	left	f
Ambiguity	46	1058	blue	0.38	[0,1]	Ambiguous	narrow	left	j
Ambiguity	47	868	blue	0.42	[0,1]	Ambiguous	narrow	left	j
Ambiguity	48	736	blue	0.46	[0,1]	Ambiguous	narrow	left	j
Ambiguity	49	437	blue	0.56	[0,1]	risk	narrow	left	f
Ambiguity	50	769	blue	0.51	[0,1]	risk	narrow	right	j
Ambiguity	51	1620	blue	0.43	[0,1]	Ambiguous	narrow	right	f
Ambiguity	52	984	blue	0.45	[0,1]	Ambiguous	narrow	right	f
Ambiguity	53	1022	blue	0.5	[0,1]	risk	narrow	left	f
Ambiguity	54	873	blue	0.48	[0,1]	Ambiguous	narrow	left	j
Ambiguity	55	681	blue	0.49	[0,1]	risk	narrow	left	f
Ambiguity	56	726	blue	0.48	[0,1]	Ambiguous	narrow	left	j
Ambiguity	57	530	blue	0.48	[0,1]	Ambiguous	narrow	left	j
Ambiguity	58	489	blue	0.51	[0,1]	Ambiguous	narrow	left	j
Ambiguity	59	1515	blue	0.49	[0,1]	Ambiguous	narrow	right	f
Ambiguity	60	3544	red	0.5	[0.25,0.75]	risk	wide	right	j
Ambiguity	61	1033	red	0.38	[0.25,0.75]	Ambiguous	wide	left	j
Ambiguity	62	701	red	0.4	[0.25,0.75]	Ambiguous	wide	left	j
Ambiguity	63	1036	red	0.47	[0.25,0.75]	Ambiguous	wide	right	f
Ambiguity	64	821	red	0.58	[0.25,0.75]	Ambiguous	wide	right	f
Ambiguity	65	450	red	0.73	[0.25,0.75]	Ambiguous	wide	right	f
Ambiguity	66	968	red	0.95	[0.25,0.75]	risk	wide	right	j
Ambiguity	67	1192	red	0.83	[0.25,0.75]	risk	wide	left	f
Ambiguity	68	2035	red	0.62	[0.25,0.75]	Ambiguous	wide	left	j
Ambiguity	69	972	red	0.73	[0.25,0.75]	risk	wide	right	j
Ambiguity	70	809	red	0.69	[0.25,0.75]	Ambiguous	wide	right	f
Ambiguity	71	1106	red	0.72	[0.25,0.75]	Ambiguous	wide	left	j
Ambiguity	72	931	red	0.76	[0.25,0.75]	risk	wide	right	j
Ambiguity	73	1138	red	0.74	[0.25,0.75]	risk	wide	left	f
Ambiguity	74	1413	red	0.71	[0.25,0.75]	risk	wide	right	j
Ambiguity	75	1244	red	0.5	[0,1]	risk	wide	right	j
Ambiguity	76	1400	red	0.41	[0,1]	Ambiguous	wide	left	j
Ambiguity	77	508	red	0.48	[0,1]	Ambiguous	wide	left	j
Ambiguity	78	456	red	0.57	[0,1]	risk	wide	left	f
Ambiguity	79	603	red	0.51	[0,1]	Ambiguous	wide	left	j
Ambiguity	80	1165	red	0.54	[0,1]	risk	wide	left	f
Ambiguity	81	1709	red	0.52	[0,1]	Ambiguous	wide	right	f
Ambiguity	82	1293	red	0.52	[0,1]	Ambiguous	wide	left	j
Ambiguity	83	1142	red	0.54	[0,1]	Ambiguous	wide	right	f
Ambiguity	84	1444	red	0.57	[0,1]	Ambiguous	wide	left	j
Ambiguity	85	1250	red	0.61	[0,1]	Ambiguous	wide	right	f
Ambiguity	86	946	red	0.61	[0,1]	Ambiguous	wide	right	f
Ambiguity	87	1011	red	0.63	[0,1]	Ambiguous	wide	left	j
Ambiguity	88	897	red	0.7	[0,1]	risk	wide	right	j
Ambiguity	89	1761	red	0.66	[0,1]	Ambiguous	wide	left	j
