Blocktype	tnum	rt	color	winprob	Amb	choice	dist	side	response
Ambiguity	0	1016	blue	0.5	[0.25,0.75]	risk	narrow	right	j
Ambiguity	1	1289	blue	0.38	[0.25,0.75]	Ambiguous	narrow	left	j
Ambiguity	2	743	blue	0.44	[0.25,0.75]	risk	narrow	right	j
Ambiguity	3	460	blue	0.4	[0.25,0.75]	risk	narrow	left	f
Ambiguity	4	986	blue	0.35	[0.25,0.75]	risk	narrow	left	f
Ambiguity	5	1140	blue	0.28	[0.25,0.75]	Ambiguous	narrow	right	f
Ambiguity	6	935	blue	0.31	[0.25,0.75]	risk	narrow	right	j
Ambiguity	7	939	blue	0.31	[0.25,0.75]	Ambiguous	narrow	left	j
Ambiguity	8	907	blue	0.33	[0.25,0.75]	risk	narrow	right	j
Ambiguity	9	863	blue	0.33	[0.25,0.75]	Ambiguous	narrow	left	j
Ambiguity	10	1076	blue	0.3	[0.25,0.75]	Ambiguous	narrow	left	j
Ambiguity	11	1092	blue	0.31	[0.25,0.75]	risk	narrow	right	j
Ambiguity	12	814	blue	0.3	[0.25,0.75]	risk	narrow	right	j
Ambiguity	13	738	blue	0.31	[0.25,0.75]	risk	narrow	right	j
Ambiguity	14	644	blue	0.3	[0.25,0.75]	risk	narrow	left	f
Ambiguity	15	695	blue	0.5	[0,1]	risk	narrow	left	f
Ambiguity	16	1104	blue	0.4	[0,1]	risk	narrow	left	f
Ambiguity	17	896	blue	0.24	[0,1]	Ambiguous	narrow	left	j
Ambiguity	18	521	blue	0.29	[0,1]	risk	narrow	left	f
Ambiguity	19	486	blue	0.23	[0,1]	risk	narrow	left	f
Ambiguity	20	725	blue	0.17	[0,1]	risk	narrow	right	j
Ambiguity	21	808	blue	0.1	[0,1]	Ambiguous	narrow	right	f
Ambiguity	22	803	blue	0.11	[0,1]	Ambiguous	narrow	right	f
Ambiguity	23	645	blue	0.18	[0,1]	risk	narrow	left	f
Ambiguity	24	1038	blue	0.15	[0,1]	risk	narrow	left	f
Ambiguity	25	808	blue	0.09	[0,1]	Ambiguous	narrow	left	j
Ambiguity	26	608	blue	0.11	[0,1]	Ambiguous	narrow	left	j
Ambiguity	27	798	blue	0.15	[0,1]	Ambiguous	narrow	left	j
Ambiguity	28	955	blue	0.2	[0,1]	risk	narrow	right	j
Ambiguity	29	842	blue	0.16	[0,1]	Ambiguous	narrow	left	j
Ambiguity	30	1327	red	0.5	[0.25,0.75]	risk	wide	right	j
Ambiguity	31	694	red	0.41	[0.25,0.75]	risk	wide	right	j
Ambiguity	32	1312	red	0.24	[0.25,0.75]	Ambiguous	wide	right	f
Ambiguity	33	1160	red	0.34	[0.25,0.75]	risk	wide	left	f
Ambiguity	34	675	red	0.3	[0.25,0.75]	risk	wide	left	f
Ambiguity	35	1451	red	0.25	[0.25,0.75]	Ambiguous	wide	right	f
Ambiguity	36	1083	red	0.28	[0.25,0.75]	risk	wide	right	j
Ambiguity	37	1041	red	0.26	[0.25,0.75]	risk	wide	left	f
Ambiguity	38	716	red	0.23	[0.25,0.75]	Ambiguous	wide	left	j
Ambiguity	39	970	red	0.22	[0.25,0.75]	Ambiguous	wide	right	f
Ambiguity	40	946	red	0.24	[0.25,0.75]	Ambiguous	wide	right	f
Ambiguity	41	728	red	0.28	[0.25,0.75]	risk	wide	right	j
Ambiguity	42	651	red	0.28	[0.25,0.75]	risk	wide	left	f
Ambiguity	43	1122	red	0.25	[0.25,0.75]	risk	wide	right	j
Ambiguity	44	879	red	0.23	[0.25,0.75]	Ambiguous	wide	right	f
Ambiguity	45	964	red	0.5	[0,1]	risk	wide	right	j
Ambiguity	46	638	red	0.4	[0,1]	risk	wide	left	f
Ambiguity	47	805	red	0.24	[0,1]	Ambiguous	wide	right	f
Ambiguity	48	892	red	0.3	[0,1]	risk	wide	right	j
Ambiguity	49	819	red	0.24	[0,1]	Ambiguous	wide	left	j
Ambiguity	50	627	red	0.26	[0,1]	risk	wide	left	f
Ambiguity	51	712	red	0.23	[0,1]	risk	wide	right	j
Ambiguity	52	642	red	0.23	[0,1]	risk	wide	left	f
Ambiguity	53	595	red	0.2	[0,1]	Ambiguous	wide	right	f
Ambiguity	54	746	red	0.22	[0,1]	Ambiguous	wide	right	f
Ambiguity	55	691	red	0.26	[0,1]	Ambiguous	wide	right	f
Ambiguity	56	901	red	0.26	[0,1]	Ambiguous	wide	left	j
Ambiguity	57	646	red	0.32	[0,1]	risk	wide	left	f
Ambiguity	58	597	red	0.31	[0,1]	risk	wide	left	f
Ambiguity	59	949	red	0.29	[0,1]	Ambiguous	wide	right	f
Ambiguity	60	1047	green	0.5	[0.25,0.75]	risk	skew	left	f
Ambiguity	61	882	green	0.38	[0.25,0.75]	risk	skew	right	j
Ambiguity	62	882	green	0.22	[0.25,0.75]	Ambiguous	skew	right	f
Ambiguity	63	1069	green	0.32	[0.25,0.75]	risk	skew	right	j
Ambiguity	64	1159	green	0.29	[0.25,0.75]	risk	skew	right	j
Ambiguity	65	829	green	0.22	[0.25,0.75]	Ambiguous	skew	right	f
Ambiguity	66	704	green	0.22	[0.25,0.75]	Ambiguous	skew	left	j
Ambiguity	67	892	green	0.24	[0.25,0.75]	Ambiguous	skew	right	f
Ambiguity	68	679	green	0.32	[0.25,0.75]	risk	skew	right	j
Ambiguity	69	931	green	0.28	[0.25,0.75]	Ambiguous	skew	left	j
Ambiguity	70	717	green	0.32	[0.25,0.75]	risk	skew	right	j
Ambiguity	71	751	green	0.3	[0.25,0.75]	risk	skew	right	j
Ambiguity	72	671	green	0.27	[0.25,0.75]	risk	skew	right	j
Ambiguity	73	696	green	0.26	[0.25,0.75]	risk	skew	left	f
Ambiguity	74	626	green	0.24	[0.25,0.75]	risk	skew	left	f
Ambiguity	75	923	green	0.5	[0,1]	Ambiguous	skew	right	f
Ambiguity	76	724	green	0.58	[0,1]	risk	skew	left	f
Ambiguity	77	800	green	0.54	[0,1]	risk	skew	right	j
Ambiguity	78	767	green	0.47	[0,1]	risk	skew	right	j
Ambiguity	79	559	green	0.34	[0,1]	risk	skew	left	f
Ambiguity	80	729	green	0.17	[0,1]	Ambiguous	skew	left	j
Ambiguity	81	748	green	0.27	[0,1]	risk	skew	left	f
Ambiguity	82	812	green	0.24	[0,1]	Ambiguous	skew	left	j
Ambiguity	83	639	green	0.26	[0,1]	risk	skew	left	f
Ambiguity	84	522	green	0.26	[0,1]	Ambiguous	skew	right	f
Ambiguity	85	913	green	0.28	[0,1]	Ambiguous	skew	left	j
Ambiguity	86	907	green	0.3	[0,1]	Ambiguous	skew	left	j
Ambiguity	87	592	green	0.3	[0,1]	Ambiguous	skew	left	j
Ambiguity	88	803	green	0.32	[0,1]	Ambiguous	skew	right	f
Ambiguity	89	868	green	0.37	[0,1]	risk	skew	right	j
