Blocktype	tnum	rt	color	winprob	Amb	choice	dist	side	response
Ambiguity	0	3043	red	0.5	[0.25,0.75]	risk	wide	right	j
Ambiguity	1	1836	red	0.39	[0.25,0.75]	Ambiguous	wide	left	j
Ambiguity	2	2592	red	0.41	[0.25,0.75]	Ambiguous	wide	left	j
Ambiguity	3	1181	red	0.45	[0.25,0.75]	Ambiguous	wide	right	f
Ambiguity	4	1559	red	0.54	[0.25,0.75]	risk	wide	right	j
Ambiguity	5	1089	red	0.47	[0.25,0.75]	Ambiguous	wide	right	f
Ambiguity	6	1458	red	0.51	[0.25,0.75]	risk	wide	right	j
Ambiguity	7	910	red	0.5	[0.25,0.75]	risk	wide	right	j
Ambiguity	8	869	red	0.48	[0.25,0.75]	Ambiguous	wide	right	f
Ambiguity	9	1226	red	0.48	[0.25,0.75]	Ambiguous	wide	left	j
Ambiguity	10	1225	red	0.49	[0.25,0.75]	Ambiguous	wide	left	j
Ambiguity	11	836	red	0.49	[0.25,0.75]	Ambiguous	wide	right	f
Ambiguity	12	847	red	0.55	[0.25,0.75]	risk	wide	left	f
Ambiguity	13	1216	red	0.51	[0.25,0.75]	risk	wide	left	f
Ambiguity	14	1024	red	0.47	[0.25,0.75]	Ambiguous	wide	right	f
Ambiguity	15	1203	red	0.5	[0,1]	risk	wide	left	f
Ambiguity	16	1522	red	0.4	[0,1]	Ambiguous	wide	left	j
Ambiguity	17	1036	red	0.45	[0,1]	Ambiguous	wide	left	j
Ambiguity	18	949	red	0.53	[0,1]	risk	wide	left	f
Ambiguity	19	1213	red	0.5	[0,1]	risk	wide	left	f
Ambiguity	20	1326	red	0.42	[0,1]	Ambiguous	wide	left	j
Ambiguity	21	1754	red	0.44	[0,1]	Ambiguous	wide	left	j
Ambiguity	22	1116	red	0.46	[0,1]	Ambiguous	wide	left	j
Ambiguity	23	1586	red	0.49	[0,1]	Ambiguous	wide	right	f
Ambiguity	24	862	red	0.59	[0,1]	risk	wide	left	f
Ambiguity	25	1075	red	0.53	[0,1]	risk	wide	right	j
Ambiguity	26	771	red	0.47	[0,1]	Ambiguous	wide	left	j
Ambiguity	27	941	red	0.49	[0,1]	Ambiguous	wide	right	f
Ambiguity	28	931	red	0.55	[0,1]	risk	wide	right	j
Ambiguity	29	639	red	0.51	[0,1]	risk	wide	left	f
Ambiguity	30	3005	green	0.5	[0.25,0.75]	risk	narrow	left	f
Ambiguity	31	2852	green	0.39	[0.25,0.75]	Ambiguous	narrow	right	f
Ambiguity	32	847	green	0.46	[0.25,0.75]	Ambiguous	narrow	left	j
Ambiguity	33	665	green	0.52	[0.25,0.75]	risk	narrow	left	f
Ambiguity	34	1363	green	0.48	[0.25,0.75]	Ambiguous	narrow	right	f
Ambiguity	35	2232	green	0.47	[0.25,0.75]	Ambiguous	narrow	left	j
Ambiguity	36	887	green	0.51	[0.25,0.75]	risk	narrow	right	j
Ambiguity	37	761	green	0.51	[0.25,0.75]	risk	narrow	left	f
Ambiguity	38	1163	green	0.47	[0.25,0.75]	Ambiguous	narrow	left	j
Ambiguity	39	859	green	0.5	[0.25,0.75]	risk	narrow	left	f
Ambiguity	40	1022	green	0.49	[0.25,0.75]	Ambiguous	narrow	right	f
Ambiguity	41	775	green	0.5	[0.25,0.75]	risk	narrow	left	f
Ambiguity	42	543	green	0.5	[0.25,0.75]	risk	narrow	left	f
Ambiguity	43	851	green	0.51	[0.25,0.75]	risk	narrow	left	f
Ambiguity	44	871	green	0.52	[0.25,0.75]	risk	narrow	right	j
Ambiguity	45	1628	green	0.5	[0,1]	risk	narrow	left	f
Ambiguity	46	693	green	0.4	[0,1]	Ambiguous	narrow	left	j
Ambiguity	47	937	green	0.42	[0,1]	Ambiguous	narrow	left	j
Ambiguity	48	909	green	0.49	[0,1]	Ambiguous	narrow	right	f
Ambiguity	49	1011	green	0.61	[0,1]	risk	narrow	right	j
Ambiguity	50	739	green	0.55	[0,1]	risk	narrow	left	f
Ambiguity	51	965	green	0.48	[0,1]	Ambiguous	narrow	right	f
Ambiguity	52	691	green	0.52	[0,1]	risk	narrow	left	f
Ambiguity	53	807	green	0.5	[0,1]	risk	narrow	left	f
Ambiguity	54	659	green	0.48	[0,1]	Ambiguous	narrow	left	j
Ambiguity	55	856	green	0.5	[0,1]	risk	narrow	right	j
Ambiguity	56	775	green	0.49	[0,1]	Ambiguous	narrow	right	f
Ambiguity	57	681	green	0.47	[0,1]	Ambiguous	narrow	left	j
Ambiguity	58	659	green	0.5	[0,1]	risk	narrow	left	f
Ambiguity	59	912	green	0.51	[0,1]	risk	narrow	right	j
Ambiguity	60	2261	blue	0.5	[0.25,0.75]	Ambiguous	skew	left	j
Ambiguity	61	1782	blue	0.6	[0.25,0.75]	risk	skew	right	j
Ambiguity	62	1145	blue	0.56	[0.25,0.75]	Ambiguous	skew	left	j
Ambiguity	63	1313	blue	0.56	[0.25,0.75]	risk	skew	right	j
Ambiguity	64	1116	blue	0.53	[0.25,0.75]	Ambiguous	skew	right	f
Ambiguity	65	1197	blue	0.55	[0.25,0.75]	risk	skew	right	j
Ambiguity	66	762	blue	0.56	[0.25,0.75]	risk	skew	left	f
Ambiguity	67	1234	blue	0.56	[0.25,0.75]	Ambiguous	skew	right	f
Ambiguity	68	911	blue	0.55	[0.25,0.75]	Ambiguous	skew	left	j
Ambiguity	69	816	blue	0.57	[0.25,0.75]	Ambiguous	skew	left	j
Ambiguity	70	1013	blue	0.55	[0.25,0.75]	Ambiguous	skew	right	f
Ambiguity	71	864	blue	0.54	[0.25,0.75]	Ambiguous	skew	left	j
Ambiguity	72	832	blue	0.55	[0.25,0.75]	Ambiguous	skew	left	j
Ambiguity	73	1053	blue	0.54	[0.25,0.75]	Ambiguous	skew	right	f
Ambiguity	74	882	blue	0.55	[0.25,0.75]	Ambiguous	skew	right	f
Ambiguity	75	954	blue	0.5	[0,1]	Ambiguous	skew	right	f
Ambiguity	76	2750	blue	0.6	[0,1]	Ambiguous	skew	left	j
Ambiguity	77	1501	blue	0.72	[0,1]	risk	skew	left	f
Ambiguity	78	986	blue	0.65	[0,1]	risk	skew	left	f
Ambiguity	79	1022	blue	0.53	[0,1]	Ambiguous	skew	right	f
Ambiguity	80	1095	blue	0.61	[0,1]	risk	skew	left	f
Ambiguity	81	860	blue	0.57	[0,1]	Ambiguous	skew	right	f
Ambiguity	82	735	blue	0.58	[0,1]	Ambiguous	skew	left	j
Ambiguity	83	1378	blue	0.62	[0,1]	risk	skew	right	j
Ambiguity	84	758	blue	0.6	[0,1]	Ambiguous	skew	right	f
Ambiguity	85	1045	blue	0.61	[0,1]	Ambiguous	skew	right	f
Ambiguity	86	964	blue	0.62	[0,1]	Ambiguous	skew	left	j
Ambiguity	87	937	blue	0.63	[0,1]	Ambiguous	skew	right	f
Ambiguity	88	879	blue	0.62	[0,1]	Ambiguous	skew	left	j
Ambiguity	89	1277	blue	0.64	[0,1]	Ambiguous	skew	right	f
