Blocktype	tnum	rt	color	winprob	Amb	choice	dist	side	response
Ambiguity	0	NA	red	0.5	[0.25,0.75]	Ambiguous	skew	right	
Ambiguity	1	2477	red	0.57	[0.25,0.75]	Ambiguous	skew	left	j
Ambiguity	2	2268	red	0.74	[0.25,0.75]	risk	skew	left	f
Ambiguity	3	1778	red	0.68	[0.25,0.75]	Ambiguous	skew	left	j
Ambiguity	4	2407	red	0.71	[0.25,0.75]	Ambiguous	skew	right	f
Ambiguity	5	2246	red	0.76	[0.25,0.75]	risk	skew	right	j
Ambiguity	6	1745	red	0.73	[0.25,0.75]	risk	skew	right	j
Ambiguity	7	2490	red	0.67	[0.25,0.75]	Ambiguous	skew	right	f
Ambiguity	8	1933	red	0.68	[0.25,0.75]	Ambiguous	skew	left	j
Ambiguity	9	2113	red	0.68	[0.25,0.75]	risk	skew	left	f
Ambiguity	10	1788	red	0.65	[0.25,0.75]	Ambiguous	skew	right	f
Ambiguity	11	2126	red	0.63	[0.25,0.75]	Ambiguous	skew	right	f
Ambiguity	12	2677	red	0.64	[0.25,0.75]	risk	skew	right	j
Ambiguity	13	1627	red	0.63	[0.25,0.75]	Ambiguous	skew	right	f
Ambiguity	14	1359	red	0.61	[0.25,0.75]	Ambiguous	skew	left	j
Ambiguity	15	1888	red	0.5	[0,1]	Ambiguous	skew	left	j
Ambiguity	16	2076	red	0.6	[0,1]	risk	skew	left	f
Ambiguity	17	1243	red	0.54	[0,1]	Ambiguous	skew	left	j
Ambiguity	18	1297	red	0.58	[0,1]	Ambiguous	skew	left	j
Ambiguity	19	1833	red	0.6	[0,1]	Ambiguous	skew	left	j
Ambiguity	20	1257	red	0.64	[0,1]	Ambiguous	skew	left	j
Ambiguity	21	1549	red	0.7	[0,1]	risk	skew	left	f
Ambiguity	22	1611	red	0.66	[0,1]	Ambiguous	skew	left	j
Ambiguity	23	1134	red	0.67	[0,1]	Ambiguous	skew	right	f
Ambiguity	24	2284	red	0.68	[0,1]	risk	skew	left	f
Ambiguity	25	1595	red	0.65	[0,1]	risk	skew	left	f
Ambiguity	26	1364	red	0.64	[0,1]	risk	skew	left	f
Ambiguity	27	1094	red	0.61	[0,1]	Ambiguous	skew	left	j
Ambiguity	28	934	red	0.64	[0,1]	Ambiguous	skew	left	j
Ambiguity	29	1803	red	0.66	[0,1]	risk	skew	left	f
Ambiguity	30	2661	green	0.5	[0.25,0.75]	risk	narrow	right	j
Ambiguity	31	1878	green	0.4	[0.25,0.75]	Ambiguous	narrow	right	f
Ambiguity	32	1533	green	0.44	[0.25,0.75]	Ambiguous	narrow	right	f
Ambiguity	33	1293	green	0.54	[0.25,0.75]	risk	narrow	right	j
Ambiguity	34	1467	green	0.48	[0.25,0.75]	Ambiguous	narrow	left	j
Ambiguity	35	1303	green	0.49	[0.25,0.75]	Ambiguous	narrow	left	j
Ambiguity	36	1455	green	0.5	[0.25,0.75]	risk	narrow	right	j
Ambiguity	37	1086	green	0.5	[0.25,0.75]	risk	narrow	right	j
Ambiguity	38	1145	green	0.49	[0.25,0.75]	Ambiguous	narrow	left	j
Ambiguity	39	1179	green	0.49	[0.25,0.75]	Ambiguous	narrow	right	f
Ambiguity	40	1405	green	0.5	[0.25,0.75]	risk	narrow	left	f
Ambiguity	41	1809	green	0.5	[0.25,0.75]	risk	narrow	right	j
Ambiguity	42	929	green	0.47	[0.25,0.75]	Ambiguous	narrow	left	j
Ambiguity	43	1185	green	0.46	[0.25,0.75]	Ambiguous	narrow	left	j
Ambiguity	44	1132	green	0.49	[0.25,0.75]	Ambiguous	narrow	right	f
Ambiguity	45	1465	green	0.5	[0,1]	Ambiguous	narrow	left	j
Ambiguity	46	1573	green	0.62	[0,1]	risk	narrow	left	f
Ambiguity	47	1141	green	0.56	[0,1]	risk	narrow	left	f
Ambiguity	48	1233	green	0.49	[0,1]	Ambiguous	narrow	left	j
Ambiguity	49	1214	green	0.51	[0,1]	Ambiguous	narrow	right	f
Ambiguity	50	1239	green	0.54	[0,1]	Ambiguous	narrow	right	f
Ambiguity	51	1201	green	0.61	[0,1]	Ambiguous	narrow	left	j
Ambiguity	52	921	green	0.75	[0,1]	risk	narrow	left	f
Ambiguity	53	712	green	0.7	[0,1]	risk	narrow	left	f
Ambiguity	54	1227	green	0.59	[0,1]	risk	narrow	right	j
Ambiguity	55	1320	green	0.44	[0,1]	Ambiguous	narrow	right	f
Ambiguity	56	1043	green	0.49	[0,1]	Ambiguous	narrow	left	j
Ambiguity	57	1293	green	0.57	[0,1]	Ambiguous	narrow	right	f
Ambiguity	58	787	green	0.7	[0,1]	risk	narrow	right	j
Ambiguity	59	1368	green	0.6	[0,1]	risk	narrow	left	f
Ambiguity	60	3001	blue	0.5	[0.25,0.75]	risk	wide	left	f
Ambiguity	61	1521	blue	0.39	[0.25,0.75]	Ambiguous	wide	left	j
Ambiguity	62	1834	blue	0.43	[0.25,0.75]	Ambiguous	wide	right	f
Ambiguity	63	1472	blue	0.48	[0.25,0.75]	Ambiguous	wide	right	f
Ambiguity	64	1687	blue	0.58	[0.25,0.75]	risk	wide	right	j
Ambiguity	65	1623	blue	0.52	[0.25,0.75]	Ambiguous	wide	right	f
Ambiguity	66	1510	blue	0.53	[0.25,0.75]	Ambiguous	wide	left	j
Ambiguity	67	1767	blue	0.54	[0.25,0.75]	Ambiguous	wide	right	f
Ambiguity	68	1616	blue	0.57	[0.25,0.75]	Ambiguous	wide	right	f
Ambiguity	69	1835	blue	0.67	[0.25,0.75]	risk	wide	left	f
Ambiguity	70	1558	blue	0.63	[0.25,0.75]	Ambiguous	wide	left	j
Ambiguity	71	1239	blue	0.65	[0.25,0.75]	risk	wide	left	f
Ambiguity	72	1650	blue	0.64	[0.25,0.75]	risk	wide	left	f
Ambiguity	73	2267	blue	0.61	[0.25,0.75]	risk	wide	left	f
Ambiguity	74	1896	blue	0.57	[0.25,0.75]	Ambiguous	wide	right	f
Ambiguity	75	1097	blue	0.5	[0,1]	Ambiguous	wide	left	j
Ambiguity	76	1122	blue	0.61	[0,1]	risk	wide	right	j
Ambiguity	77	1050	blue	0.54	[0,1]	Ambiguous	wide	right	f
Ambiguity	78	1400	blue	0.55	[0,1]	Ambiguous	wide	right	f
Ambiguity	79	1096	blue	0.6	[0,1]	risk	wide	right	j
Ambiguity	80	894	blue	0.59	[0,1]	risk	wide	left	f
Ambiguity	81	1138	blue	0.54	[0,1]	risk	wide	right	j
Ambiguity	82	1482	blue	0.49	[0,1]	risk	wide	left	f
Ambiguity	83	1488	blue	0.41	[0,1]	risk	wide	right	j
Ambiguity	84	1770	blue	0.33	[0,1]	Ambiguous	wide	right	f
Ambiguity	85	1228	blue	0.38	[0,1]	risk	wide	right	j
Ambiguity	86	1438	blue	0.34	[0,1]	Ambiguous	wide	left	j
Ambiguity	87	1565	blue	0.35	[0,1]	Ambiguous	wide	right	f
Ambiguity	88	1822	blue	0.36	[0,1]	risk	wide	right	j
Ambiguity	89	1629	blue	0.36	[0,1]	Ambiguous	wide	left	j
