Blocktype	tnum	rt	color	winprob	Amb	choice	dist	side	response
Ambiguity	0	3210	red	0.5	[0.25,0.75]	risk	narrow	right	j
Ambiguity	1	1754	red	0.4	[0.25,0.75]	Ambiguous	narrow	right	f
Ambiguity	2	1621	red	0.46	[0.25,0.75]	Ambiguous	narrow	left	j
Ambiguity	3	1554	red	0.53	[0.25,0.75]	risk	narrow	left	f
Ambiguity	4	1981	red	0.5	[0.25,0.75]	risk	narrow	right	j
Ambiguity	5	1188	red	0.43	[0.25,0.75]	Ambiguous	narrow	left	j
Ambiguity	6	1558	red	0.44	[0.25,0.75]	Ambiguous	narrow	right	f
Ambiguity	7	1419	red	0.48	[0.25,0.75]	Ambiguous	narrow	left	j
Ambiguity	8	1277	red	0.54	[0.25,0.75]	risk	narrow	left	f
Ambiguity	9	1895	red	0.51	[0.25,0.75]	risk	narrow	right	j
Ambiguity	10	1029	red	0.45	[0.25,0.75]	Ambiguous	narrow	left	j
Ambiguity	11	1440	red	0.45	[0.25,0.75]	Ambiguous	narrow	right	f
Ambiguity	12	1269	red	0.46	[0.25,0.75]	Ambiguous	narrow	left	j
Ambiguity	13	1181	red	0.51	[0.25,0.75]	risk	narrow	left	f
Ambiguity	14	937	red	0.47	[0.25,0.75]	Ambiguous	narrow	right	f
Ambiguity	15	1761	red	0.5	[0,1]	risk	narrow	right	j
Ambiguity	16	1344	red	0.39	[0,1]	Ambiguous	narrow	right	f
Ambiguity	17	1611	red	0.41	[0,1]	Ambiguous	narrow	right	f
Ambiguity	18	1016	red	0.51	[0,1]	risk	narrow	right	j
Ambiguity	19	1733	red	0.48	[0,1]	Ambiguous	narrow	left	j
Ambiguity	20	1331	red	0.5	[0,1]	risk	narrow	left	f
Ambiguity	21	NA	red	0.48	[0,1]	Ambiguous	narrow	left	
Ambiguity	22	1774	red	0.47	[0,1]	Ambiguous	narrow	left	j
Ambiguity	23	1045	red	0.5	[0,1]	risk	narrow	left	f
Ambiguity	24	1112	red	0.5	[0,1]	risk	narrow	left	f
Ambiguity	25	1060	red	0.48	[0,1]	Ambiguous	narrow	right	f
Ambiguity	26	978	red	0.46	[0,1]	Ambiguous	narrow	right	f
Ambiguity	27	961	red	0.43	[0,1]	Ambiguous	narrow	left	j
Ambiguity	28	1400	red	0.42	[0,1]	Ambiguous	narrow	right	f
Ambiguity	29	487	red	0.42	[0,1]	Ambiguous	narrow	right	f
Ambiguity	30	2371	green	0.5	[0.25,0.75]	risk	wide	right	j
Ambiguity	31	1252	green	0.4	[0.25,0.75]	Ambiguous	wide	right	f
Ambiguity	32	798	green	0.42	[0.25,0.75]	Ambiguous	wide	right	f
Ambiguity	33	1633	green	0.49	[0.25,0.75]	Ambiguous	wide	left	j
Ambiguity	34	1306	green	0.59	[0.25,0.75]	risk	wide	left	f
Ambiguity	35	592	green	0.52	[0.25,0.75]	risk	wide	left	f
Ambiguity	36	977	green	0.44	[0.25,0.75]	Ambiguous	wide	right	f
Ambiguity	37	788	green	0.45	[0.25,0.75]	Ambiguous	wide	right	f
Ambiguity	38	676	green	0.5	[0.25,0.75]	risk	wide	left	f
Ambiguity	39	757	green	0.47	[0.25,0.75]	Ambiguous	wide	right	f
Ambiguity	40	1730	green	0.49	[0.25,0.75]	Ambiguous	wide	left	j
Ambiguity	41	868	green	0.53	[0.25,0.75]	risk	wide	right	j
Ambiguity	42	586	green	0.52	[0.25,0.75]	risk	wide	right	j
Ambiguity	43	1072	green	0.48	[0.25,0.75]	Ambiguous	wide	right	f
Ambiguity	44	521	green	0.46	[0.25,0.75]	Ambiguous	wide	right	f
Ambiguity	45	834	green	0.5	[0,1]	Ambiguous	wide	right	f
Ambiguity	46	782	green	0.62	[0,1]	risk	wide	left	f
Ambiguity	47	512	green	0.58	[0,1]	risk	wide	left	f
Ambiguity	48	1683	green	0.5	[0,1]	risk	wide	right	j
Ambiguity	49	846	green	0.4	[0,1]	Ambiguous	wide	left	j
Ambiguity	50	884	green	0.47	[0,1]	Ambiguous	wide	left	j
Ambiguity	51	1146	green	0.52	[0,1]	risk	wide	left	f
Ambiguity	52	1063	green	0.46	[0,1]	Ambiguous	wide	left	j
Ambiguity	53	605	green	0.46	[0,1]	risk	wide	right	j
Ambiguity	54	1235	green	0.46	[0,1]	Ambiguous	wide	right	f
Ambiguity	55	654	green	0.49	[0,1]	Ambiguous	wide	right	f
Ambiguity	56	799	green	0.5	[0,1]	Ambiguous	wide	right	f
Ambiguity	57	536	green	0.48	[0,1]	Ambiguous	wide	right	f
Ambiguity	58	800	green	0.5	[0,1]	risk	wide	left	f
Ambiguity	59	1401	green	0.5	[0,1]	risk	wide	right	j
Ambiguity	60	1321	blue	0.5	[0.25,0.75]	Ambiguous	skew	left	j
Ambiguity	61	2428	blue	0.59	[0.25,0.75]	Ambiguous	skew	right	f
Ambiguity	62	1344	blue	0.76	[0.25,0.75]	risk	skew	right	j
Ambiguity	63	1064	blue	0.7	[0.25,0.75]	risk	skew	right	j
Ambiguity	64	1230	blue	0.57	[0.25,0.75]	Ambiguous	skew	left	j
Ambiguity	65	1634	blue	0.63	[0.25,0.75]	Ambiguous	skew	right	f
Ambiguity	66	1032	blue	0.69	[0.25,0.75]	risk	skew	left	f
Ambiguity	67	991	blue	0.65	[0.25,0.75]	Ambiguous	skew	right	f
Ambiguity	68	1192	blue	0.66	[0.25,0.75]	Ambiguous	skew	left	j
Ambiguity	69	923	blue	0.66	[0.25,0.75]	Ambiguous	skew	left	j
Ambiguity	70	946	blue	0.7	[0.25,0.75]	risk	skew	left	f
Ambiguity	71	1166	blue	0.66	[0.25,0.75]	Ambiguous	skew	right	f
Ambiguity	72	1076	blue	0.68	[0.25,0.75]	risk	skew	left	f
Ambiguity	73	934	blue	0.65	[0.25,0.75]	Ambiguous	skew	right	f
Ambiguity	74	1156	blue	0.64	[0.25,0.75]	Ambiguous	skew	left	j
Ambiguity	75	796	blue	0.5	[0,1]	Ambiguous	skew	left	j
Ambiguity	76	598	blue	0.57	[0,1]	Ambiguous	skew	left	j
Ambiguity	77	1575	blue	0.7	[0,1]	risk	skew	left	f
Ambiguity	78	1792	blue	0.64	[0,1]	Ambiguous	skew	right	f
Ambiguity	79	858	blue	0.66	[0,1]	Ambiguous	skew	left	j
Ambiguity	80	895	blue	0.71	[0,1]	risk	skew	right	j
Ambiguity	81	1070	blue	0.67	[0,1]	Ambiguous	skew	right	f
Ambiguity	82	846	blue	0.65	[0,1]	Ambiguous	skew	right	f
Ambiguity	83	679	blue	0.68	[0,1]	Ambiguous	skew	right	f
Ambiguity	84	554	blue	0.68	[0,1]	risk	skew	left	f
Ambiguity	85	985	blue	0.67	[0,1]	Ambiguous	skew	left	j
Ambiguity	86	1279	blue	0.68	[0,1]	risk	skew	right	j
Ambiguity	87	558	blue	0.69	[0,1]	risk	skew	right	j
Ambiguity	88	1276	blue	0.67	[0,1]	Ambiguous	skew	right	f
Ambiguity	89	639	blue	0.68	[0,1]	Ambiguous	skew	right	f
