Blocktype	tnum	rt	color	winprob	Amb	choice	dist	side	response
Ambiguity	0	1580	green	0.5	[0.25,0.75]	risk	wide	right	j
Ambiguity	1	1066	green	0.41	[0.25,0.75]	risk	wide	left	f
Ambiguity	2	1554	green	0.25	[0.25,0.75]	Ambiguous	wide	left	j
Ambiguity	3	1414	green	0.3	[0.25,0.75]	Ambiguous	wide	left	j
Ambiguity	4	1341	green	0.41	[0.25,0.75]	risk	wide	left	f
Ambiguity	5	1738	green	0.34	[0.25,0.75]	Ambiguous	wide	left	j
Ambiguity	6	1170	green	0.36	[0.25,0.75]	Ambiguous	wide	left	j
Ambiguity	7	1491	green	0.41	[0.25,0.75]	risk	wide	right	j
Ambiguity	8	1872	green	0.37	[0.25,0.75]	Ambiguous	wide	left	j
Ambiguity	9	1255	green	0.36	[0.25,0.75]	Ambiguous	wide	left	j
Ambiguity	10	1689	green	0.39	[0.25,0.75]	risk	wide	left	f
Ambiguity	11	1290	green	0.39	[0.25,0.75]	risk	wide	right	j
Ambiguity	12	839	green	0.36	[0.25,0.75]	Ambiguous	wide	right	f
Ambiguity	13	1499	green	0.39	[0.25,0.75]	risk	wide	left	f
Ambiguity	14	1791	green	0.38	[0.25,0.75]	risk	wide	left	f
Ambiguity	15	1801	green	0.5	[0,1]	risk	wide	left	f
Ambiguity	16	2432	green	0.38	[0,1]	risk	wide	right	j
Ambiguity	17	1819	green	0.22	[0,1]	Ambiguous	wide	left	j
Ambiguity	18	1101	green	0.28	[0,1]	Ambiguous	wide	right	f
Ambiguity	19	1881	green	0.36	[0,1]	Ambiguous	wide	left	j
Ambiguity	20	810	green	0.52	[0,1]	risk	wide	left	f
Ambiguity	21	770	green	0.42	[0,1]	risk	wide	right	j
Ambiguity	22	1057	green	0.27	[0,1]	Ambiguous	wide	right	f
Ambiguity	23	1100	green	0.32	[0,1]	Ambiguous	wide	right	f
Ambiguity	24	1409	green	0.41	[0,1]	risk	wide	left	f
Ambiguity	25	655	green	0.34	[0,1]	Ambiguous	wide	left	j
Ambiguity	26	566	green	0.34	[0,1]	Ambiguous	wide	left	j
Ambiguity	27	1261	green	0.4	[0,1]	Ambiguous	wide	right	f
Ambiguity	28	1096	green	0.47	[0,1]	Ambiguous	wide	left	j
Ambiguity	29	777	green	0.52	[0,1]	Ambiguous	wide	right	f
Ambiguity	30	2481	red	0.5	[0.25,0.75]	risk	narrow	left	f
Ambiguity	31	1260	red	0.41	[0.25,0.75]	risk	narrow	left	f
Ambiguity	32	1045	red	0.27	[0.25,0.75]	Ambiguous	narrow	right	f
Ambiguity	33	828	red	0.34	[0.25,0.75]	Ambiguous	narrow	left	j
Ambiguity	34	1485	red	0.44	[0.25,0.75]	risk	narrow	right	j
Ambiguity	35	994	red	0.37	[0.25,0.75]	Ambiguous	narrow	left	j
Ambiguity	36	1175	red	0.42	[0.25,0.75]	risk	narrow	right	j
Ambiguity	37	724	red	0.4	[0.25,0.75]	risk	narrow	left	f
Ambiguity	38	605	red	0.36	[0.25,0.75]	Ambiguous	narrow	left	j
Ambiguity	39	1769	red	0.38	[0.25,0.75]	risk	narrow	right	j
Ambiguity	40	897	red	0.38	[0.25,0.75]	risk	narrow	right	j
Ambiguity	41	1299	red	0.35	[0.25,0.75]	Ambiguous	narrow	left	j
Ambiguity	42	1302	red	0.35	[0.25,0.75]	Ambiguous	narrow	right	f
Ambiguity	43	1319	red	0.36	[0.25,0.75]	Ambiguous	narrow	left	j
Ambiguity	44	1193	red	0.34	[0.25,0.75]	Ambiguous	narrow	right	f
Ambiguity	45	1279	red	0.5	[0,1]	risk	narrow	right	j
Ambiguity	46	989	red	0.41	[0,1]	risk	narrow	right	j
Ambiguity	47	603	red	0.27	[0,1]	Ambiguous	narrow	right	f
Ambiguity	48	897	red	0.35	[0,1]	Ambiguous	narrow	left	j
Ambiguity	49	1182	red	0.45	[0,1]	risk	narrow	right	j
Ambiguity	50	928	red	0.39	[0,1]	Ambiguous	narrow	right	f
Ambiguity	51	1075	red	0.43	[0,1]	risk	narrow	left	f
Ambiguity	52	1116	red	0.4	[0,1]	Ambiguous	narrow	right	f
Ambiguity	53	673	red	0.38	[0,1]	Ambiguous	narrow	right	f
Ambiguity	54	1371	red	0.39	[0,1]	Ambiguous	narrow	right	f
Ambiguity	55	1391	red	0.38	[0,1]	risk	narrow	left	f
Ambiguity	56	816	red	0.35	[0,1]	Ambiguous	narrow	right	f
Ambiguity	57	719	red	0.34	[0,1]	Ambiguous	narrow	right	f
Ambiguity	58	775	red	0.32	[0,1]	Ambiguous	narrow	left	j
Ambiguity	59	1804	red	0.3	[0,1]	Ambiguous	narrow	right	f
Ambiguity	60	1560	blue	0.5	[0.25,0.75]	risk	skew	right	j
Ambiguity	61	822	blue	0.38	[0.25,0.75]	Ambiguous	skew	left	j
Ambiguity	62	1244	blue	0.4	[0.25,0.75]	risk	skew	right	j
Ambiguity	63	1274	blue	0.36	[0.25,0.75]	Ambiguous	skew	right	f
Ambiguity	64	1893	blue	0.35	[0.25,0.75]	Ambiguous	skew	left	j
Ambiguity	65	605	blue	0.39	[0.25,0.75]	Ambiguous	skew	left	j
Ambiguity	66	571	blue	0.43	[0.25,0.75]	risk	skew	left	f
Ambiguity	67	555	blue	0.43	[0.25,0.75]	risk	skew	left	f
Ambiguity	68	915	blue	0.42	[0.25,0.75]	risk	skew	left	f
Ambiguity	69	955	blue	0.38	[0.25,0.75]	risk	skew	right	j
Ambiguity	70	1175	blue	0.31	[0.25,0.75]	Ambiguous	skew	left	j
Ambiguity	71	848	blue	0.3	[0.25,0.75]	Ambiguous	skew	right	f
Ambiguity	72	1465	blue	0.33	[0.25,0.75]	Ambiguous	skew	left	j
Ambiguity	73	1564	blue	0.4	[0.25,0.75]	Ambiguous	skew	right	f
Ambiguity	74	733	blue	0.48	[0.25,0.75]	risk	skew	left	f
Ambiguity	75	736	blue	0.5	[0,1]	risk	skew	right	j
Ambiguity	76	612	blue	0.41	[0,1]	risk	skew	right	j
Ambiguity	77	756	blue	0.26	[0,1]	risk	skew	left	f
Ambiguity	78	886	blue	0.01	[0,1]	Ambiguous	skew	left	j
Ambiguity	79	856	blue	0.14	[0,1]	Ambiguous	skew	right	f
Ambiguity	80	981	blue	0.3	[0,1]	Ambiguous	skew	left	j
Ambiguity	81	1002	blue	0.55	[0,1]	risk	skew	right	j
Ambiguity	82	1753	blue	0.42	[0,1]	Ambiguous	skew	left	j
Ambiguity	83	1111	blue	0.47	[0,1]	risk	skew	right	j
Ambiguity	84	1394	blue	0.45	[0,1]	risk	skew	left	f
Ambiguity	85	1050	blue	0.4	[0,1]	Ambiguous	skew	left	j
Ambiguity	86	743	blue	0.43	[0,1]	Ambiguous	skew	left	j
Ambiguity	87	672	blue	0.48	[0,1]	risk	skew	left	f
Ambiguity	88	1116	blue	0.45	[0,1]	risk	skew	left	f
Ambiguity	89	690	blue	0.42	[0,1]	Ambiguous	skew	left	j
