Blocktype	tnum	rt	color	winprob	Amb	choice	dist	side	response
Ambiguity	0	2192	green	0.5	[0.25,0.75]	Ambiguous	wide	left	j
Ambiguity	1	3138	green	0.62	[0.25,0.75]	risk	wide	right	j
Ambiguity	2	3045	green	0.55	[0.25,0.75]	risk	wide	right	j
Ambiguity	3	2190	green	0.46	[0.25,0.75]	Ambiguous	wide	right	f
Ambiguity	4	3269	green	0.47	[0.25,0.75]	Ambiguous	wide	left	j
Ambiguity	5	2646	green	0.53	[0.25,0.75]	risk	wide	right	j
Ambiguity	6	2450	green	0.51	[0.25,0.75]	risk	wide	left	f
Ambiguity	7	2473	green	0.46	[0.25,0.75]	Ambiguous	wide	right	f
Ambiguity	8	2548	green	0.46	[0.25,0.75]	Ambiguous	wide	left	j
Ambiguity	9	2959	green	0.5	[0.25,0.75]	risk	wide	right	j
Ambiguity	10	1757	green	0.46	[0.25,0.75]	Ambiguous	wide	right	f
Ambiguity	11	2071	green	0.45	[0.25,0.75]	Ambiguous	wide	left	j
Ambiguity	12	2682	green	0.44	[0.25,0.75]	risk	wide	left	f
Ambiguity	13	1497	green	0.41	[0.25,0.75]	Ambiguous	wide	right	f
Ambiguity	14	1589	green	0.39	[0.25,0.75]	Ambiguous	wide	right	f
Ambiguity	15	2344	green	0.5	[0,1]	risk	wide	left	f
Ambiguity	16	2409	green	0.4	[0,1]	risk	wide	right	j
Ambiguity	17	1976	green	0.23	[0,1]	Ambiguous	wide	left	j
Ambiguity	18	1911	green	0.28	[0,1]	Ambiguous	wide	left	j
Ambiguity	19	1195	green	0.39	[0,1]	Ambiguous	wide	left	j
Ambiguity	20	1590	green	0.53	[0,1]	risk	wide	right	j
Ambiguity	21	1812	green	0.44	[0,1]	risk	wide	right	j
Ambiguity	22	2462	green	0.32	[0,1]	risk	wide	left	f
Ambiguity	23	996	green	0.11	[0,1]	Ambiguous	wide	left	j
Ambiguity	24	1622	green	0.2	[0,1]	Ambiguous	wide	right	f
Ambiguity	25	2415	green	0.36	[0,1]	Ambiguous	wide	right	f
Ambiguity	26	1104	green	0.58	[0,1]	risk	wide	right	j
Ambiguity	27	2009	green	0.46	[0,1]	risk	wide	left	f
Ambiguity	28	1173	green	0.31	[0,1]	Ambiguous	wide	left	j
Ambiguity	29	2278	green	0.4	[0,1]	risk	wide	left	f
Ambiguity	30	2452	blue	0.5	[0.25,0.75]	Ambiguous	narrow	left	j
Ambiguity	31	1677	blue	0.62	[0.25,0.75]	risk	narrow	right	j
Ambiguity	32	3065	blue	0.55	[0.25,0.75]	risk	narrow	right	j
Ambiguity	33	1665	blue	0.46	[0.25,0.75]	Ambiguous	narrow	right	f
Ambiguity	34	1843	blue	0.52	[0.25,0.75]	risk	narrow	right	j
Ambiguity	35	1909	blue	0.48	[0.25,0.75]	Ambiguous	narrow	left	j
Ambiguity	36	1786	blue	0.49	[0.25,0.75]	Ambiguous	narrow	left	j
Ambiguity	37	2045	blue	0.48	[0.25,0.75]	Ambiguous	narrow	left	j
Ambiguity	38	1970	blue	0.49	[0.25,0.75]	Ambiguous	narrow	left	j
Ambiguity	39	1881	blue	0.54	[0.25,0.75]	risk	narrow	right	j
Ambiguity	40	1855	blue	0.5	[0.25,0.75]	risk	narrow	right	j
Ambiguity	41	1505	blue	0.49	[0.25,0.75]	Ambiguous	narrow	right	f
Ambiguity	42	2119	blue	0.51	[0.25,0.75]	risk	narrow	left	f
Ambiguity	43	2363	blue	0.5	[0.25,0.75]	Ambiguous	narrow	left	j
Ambiguity	44	1539	blue	0.48	[0.25,0.75]	Ambiguous	narrow	right	f
Ambiguity	45	2468	blue	0.5	[0,1]	Ambiguous	narrow	left	j
Ambiguity	46	1001	blue	0.57	[0,1]	risk	narrow	left	f
Ambiguity	47	1183	blue	0.52	[0,1]	risk	narrow	right	j
Ambiguity	48	1535	blue	0.45	[0,1]	Ambiguous	narrow	left	j
Ambiguity	49	1842	blue	0.47	[0,1]	Ambiguous	narrow	right	f
Ambiguity	50	1564	blue	0.51	[0,1]	risk	narrow	left	f
Ambiguity	51	1721	blue	0.46	[0,1]	Ambiguous	narrow	left	j
Ambiguity	52	813	blue	0.47	[0,1]	Ambiguous	narrow	left	j
Ambiguity	53	1063	blue	0.46	[0,1]	Ambiguous	narrow	left	j
Ambiguity	54	1257	blue	0.48	[0,1]	Ambiguous	narrow	right	f
Ambiguity	55	1044	blue	0.54	[0,1]	risk	narrow	left	f
Ambiguity	56	1882	blue	0.5	[0,1]	risk	narrow	right	j
Ambiguity	57	1666	blue	0.47	[0,1]	Ambiguous	narrow	left	j
Ambiguity	58	1366	blue	0.51	[0,1]	risk	narrow	left	f
Ambiguity	59	857	blue	0.49	[0,1]	Ambiguous	narrow	left	j
Ambiguity	60	2048	red	0.5	[0.25,0.75]	Ambiguous	skew	left	j
Ambiguity	61	1412	red	0.57	[0.25,0.75]	risk	skew	right	j
Ambiguity	62	2610	red	0.53	[0.25,0.75]	Ambiguous	skew	left	j
Ambiguity	63	1504	red	0.56	[0.25,0.75]	Ambiguous	skew	left	j
Ambiguity	64	1647	red	0.57	[0.25,0.75]	Ambiguous	skew	right	f
Ambiguity	65	2336	red	0.65	[0.25,0.75]	Ambiguous	skew	right	f
Ambiguity	66	1228	red	0.73	[0.25,0.75]	risk	skew	right	j
Ambiguity	67	2317	red	0.7	[0.25,0.75]	risk	skew	left	f
Ambiguity	68	1982	red	0.63	[0.25,0.75]	Ambiguous	skew	right	f
Ambiguity	69	1770	red	0.67	[0.25,0.75]	Ambiguous	skew	right	f
Ambiguity	70	2162	red	0.72	[0.25,0.75]	risk	skew	left	f
Ambiguity	71	1736	red	0.71	[0.25,0.75]	risk	skew	right	j
Ambiguity	72	2515	red	0.68	[0.25,0.75]	risk	skew	left	f
Ambiguity	73	1472	red	0.62	[0.25,0.75]	Ambiguous	skew	left	j
Ambiguity	74	1678	red	0.63	[0.25,0.75]	Ambiguous	skew	right	f
Ambiguity	75	2443	red	0.5	[0,1]	Ambiguous	skew	left	j
Ambiguity	76	1058	red	0.62	[0,1]	Ambiguous	skew	left	j
Ambiguity	77	1177	red	0.76	[0,1]	risk	skew	left	f
Ambiguity	78	1497	red	0.68	[0,1]	Ambiguous	skew	right	f
Ambiguity	79	1042	red	0.7	[0,1]	Ambiguous	skew	right	f
Ambiguity	80	1613	red	0.75	[0,1]	risk	skew	right	j
Ambiguity	81	1116	red	0.72	[0,1]	Ambiguous	skew	right	f
Ambiguity	82	2221	red	0.71	[0,1]	Ambiguous	skew	left	j
Ambiguity	83	1423	red	0.75	[0,1]	risk	skew	right	j
Ambiguity	84	918	red	0.75	[0,1]	risk	skew	right	j
Ambiguity	85	3439	red	0.71	[0,1]	risk	skew	right	j
Ambiguity	86	967	red	0.67	[0,1]	Ambiguous	skew	right	f
Ambiguity	87	1536	red	0.69	[0,1]	Ambiguous	skew	right	f
Ambiguity	88	1254	red	0.7	[0,1]	risk	skew	left	f
Ambiguity	89	1506	red	0.67	[0,1]	Ambiguous	skew	right	f
