Blocktype	tnum	rt	color	winprob	Amb	choice	dist	side	response
Ambiguity	0	3316	red	0.5	[0.25,0.75]	risk	skew	right	j
Ambiguity	1	3043	red	0.38	[0.25,0.75]	Ambiguous	skew	left	j
Ambiguity	2	3287	red	0.45	[0.25,0.75]	risk	skew	right	j
Ambiguity	3	2185	red	0.43	[0.25,0.75]	Ambiguous	skew	right	f
Ambiguity	4	1559	red	0.42	[0.25,0.75]	Ambiguous	skew	right	f
Ambiguity	5	2056	red	0.44	[0.25,0.75]	Ambiguous	skew	left	j
Ambiguity	6	1139	red	0.44	[0.25,0.75]	Ambiguous	skew	left	j
Ambiguity	7	1597	red	0.48	[0.25,0.75]	Ambiguous	skew	right	f
Ambiguity	8	1356	red	0.54	[0.25,0.75]	Ambiguous	skew	right	f
Ambiguity	9	1616	red	0.6	[0.25,0.75]	risk	skew	left	f
Ambiguity	10	1572	red	0.53	[0.25,0.75]	risk	skew	right	j
Ambiguity	11	1741	red	0.44	[0.25,0.75]	Ambiguous	skew	left	j
Ambiguity	12	1141	red	0.47	[0.25,0.75]	Ambiguous	skew	right	f
Ambiguity	13	1355	red	0.53	[0.25,0.75]	risk	skew	left	f
Ambiguity	14	1768	red	0.49	[0.25,0.75]	Ambiguous	skew	right	f
Ambiguity	15	3682	red	0.5	[0,1]	risk	skew	right	j
Ambiguity	16	1802	red	0.38	[0,1]	Ambiguous	skew	left	j
Ambiguity	17	1269	red	0.4	[0,1]	Ambiguous	skew	right	f
Ambiguity	18	1319	red	0.46	[0,1]	Ambiguous	skew	left	j
Ambiguity	19	1440	red	0.55	[0,1]	risk	skew	right	j
Ambiguity	20	1622	red	0.48	[0,1]	Ambiguous	skew	left	j
Ambiguity	21	933	red	0.51	[0,1]	risk	skew	left	f
Ambiguity	22	981	red	0.49	[0,1]	Ambiguous	skew	left	j
Ambiguity	23	885	red	0.49	[0,1]	Ambiguous	skew	left	j
Ambiguity	24	1264	red	0.51	[0,1]	risk	skew	right	j
Ambiguity	25	1050	red	0.51	[0,1]	risk	skew	left	f
Ambiguity	26	772	red	0.49	[0,1]	Ambiguous	skew	left	j
Ambiguity	27	714	red	0.48	[0,1]	Ambiguous	skew	left	j
Ambiguity	28	1130	red	0.48	[0,1]	risk	skew	right	j
Ambiguity	29	1008	red	0.47	[0,1]	Ambiguous	skew	left	j
Ambiguity	30	3071	blue	0.5	[0.25,0.75]	risk	narrow	left	f
Ambiguity	31	1034	blue	0.39	[0.25,0.75]	Ambiguous	narrow	left	j
Ambiguity	32	3747	blue	0.46	[0.25,0.75]	risk	narrow	right	j
Ambiguity	33	2217	blue	0.42	[0.25,0.75]	risk	narrow	right	j
Ambiguity	34	4287	blue	0.38	[0.25,0.75]	risk	narrow	left	f
Ambiguity	35	1666	blue	0.3	[0.25,0.75]	Ambiguous	narrow	right	f
Ambiguity	36	1578	blue	0.33	[0.25,0.75]	Ambiguous	narrow	right	f
Ambiguity	37	2683	blue	0.36	[0.25,0.75]	Ambiguous	narrow	left	j
Ambiguity	38	1191	blue	0.39	[0.25,0.75]	Ambiguous	narrow	left	j
Ambiguity	39	1199	blue	0.5	[0.25,0.75]	risk	narrow	left	f
Ambiguity	40	937	blue	0.45	[0.25,0.75]	risk	narrow	left	f
Ambiguity	41	1899	blue	0.37	[0.25,0.75]	Ambiguous	narrow	right	f
Ambiguity	42	2284	blue	0.43	[0.25,0.75]	risk	narrow	right	j
Ambiguity	43	1195	blue	0.42	[0.25,0.75]	risk	narrow	left	f
Ambiguity	44	1039	blue	0.37	[0.25,0.75]	Ambiguous	narrow	left	j
Ambiguity	45	2533	blue	0.5	[0,1]	risk	narrow	right	j
Ambiguity	46	1792	blue	0.4	[0,1]	Ambiguous	narrow	left	j
Ambiguity	47	1194	blue	0.42	[0,1]	risk	narrow	left	f
Ambiguity	48	1503	blue	0.37	[0,1]	Ambiguous	narrow	right	f
Ambiguity	49	1023	blue	0.37	[0,1]	Ambiguous	narrow	right	f
Ambiguity	50	976	blue	0.37	[0,1]	Ambiguous	narrow	left	j
Ambiguity	51	2259	blue	0.4	[0,1]	Ambiguous	narrow	left	j
Ambiguity	52	950	blue	0.41	[0,1]	risk	narrow	left	f
Ambiguity	53	1608	blue	0.4	[0,1]	risk	narrow	right	j
Ambiguity	54	2369	blue	0.38	[0,1]	Ambiguous	narrow	left	j
Ambiguity	55	1464	blue	0.38	[0,1]	Ambiguous	narrow	left	j
Ambiguity	56	1450	blue	0.41	[0,1]	risk	narrow	left	f
Ambiguity	57	1874	blue	0.4	[0,1]	risk	narrow	right	j
Ambiguity	58	2301	blue	0.36	[0,1]	Ambiguous	narrow	right	f
Ambiguity	59	2306	blue	0.35	[0,1]	Ambiguous	narrow	left	j
Ambiguity	60	2562	green	0.5	[0.25,0.75]	risk	wide	left	f
Ambiguity	61	3036	green	0.4	[0.25,0.75]	Ambiguous	wide	right	f
Ambiguity	62	1046	green	0.42	[0.25,0.75]	risk	wide	left	f
Ambiguity	63	1107	green	0.39	[0.25,0.75]	risk	wide	right	j
Ambiguity	64	1169	green	0.34	[0.25,0.75]	risk	wide	left	f
Ambiguity	65	854	green	0.27	[0.25,0.75]	Ambiguous	wide	left	j
Ambiguity	66	888	green	0.28	[0.25,0.75]	Ambiguous	wide	left	j
Ambiguity	67	1147	green	0.29	[0.25,0.75]	risk	wide	right	j
Ambiguity	68	1981	green	0.27	[0.25,0.75]	Ambiguous	wide	right	f
Ambiguity	69	1705	green	0.28	[0.25,0.75]	Ambiguous	wide	left	j
Ambiguity	70	2529	green	0.28	[0.25,0.75]	Ambiguous	wide	left	j
Ambiguity	71	987	green	0.32	[0.25,0.75]	risk	wide	left	f
Ambiguity	72	1225	green	0.29	[0.25,0.75]	Ambiguous	wide	right	f
Ambiguity	73	1721	green	0.27	[0.25,0.75]	Ambiguous	wide	right	f
Ambiguity	74	2144	green	0.28	[0.25,0.75]	Ambiguous	wide	left	j
Ambiguity	75	1574	green	0.5	[0,1]	risk	wide	left	f
Ambiguity	76	955	green	0.4	[0,1]	risk	wide	left	f
Ambiguity	77	957	green	0.23	[0,1]	Ambiguous	wide	left	j
Ambiguity	78	2235	green	0.3	[0,1]	risk	wide	right	j
Ambiguity	79	1376	green	0.25	[0,1]	Ambiguous	wide	left	j
Ambiguity	80	1613	green	0.29	[0,1]	Ambiguous	wide	right	f
Ambiguity	81	1262	green	0.31	[0,1]	risk	wide	right	j
Ambiguity	82	1435	green	0.3	[0,1]	Ambiguous	wide	left	j
Ambiguity	83	2468	green	0.29	[0,1]	Ambiguous	wide	right	f
Ambiguity	84	1550	green	0.31	[0,1]	risk	wide	left	f
Ambiguity	85	1796	green	0.29	[0,1]	Ambiguous	wide	right	f
Ambiguity	86	1118	green	0.26	[0,1]	Ambiguous	wide	right	f
Ambiguity	87	841	green	0.26	[0,1]	Ambiguous	wide	right	f
Ambiguity	88	957	green	0.24	[0,1]	Ambiguous	wide	right	f
Ambiguity	89	NA	green	0.26	[0,1]	Ambiguous	wide	left	
