Blocktype	tnum	rt	color	winprob	Amb	choice	dist	side	response
Ambiguity	0	2687	red	0.5	[0.25,0.75]	risk	skew	right	j
Ambiguity	1	2818	red	0.38	[0.25,0.75]	risk	skew	left	f
Ambiguity	2	2817	red	0.21	[0.25,0.75]	Ambiguous	skew	left	j
Ambiguity	3	2258	red	0.27	[0.25,0.75]	risk	skew	right	j
Ambiguity	4	1598	red	0.22	[0.25,0.75]	Ambiguous	skew	left	j
Ambiguity	5	1468	red	0.24	[0.25,0.75]	Ambiguous	skew	left	j
Ambiguity	6	1808	red	0.27	[0.25,0.75]	risk	skew	right	j
Ambiguity	7	1828	red	0.25	[0.25,0.75]	risk	skew	right	j
Ambiguity	8	1133	red	0.21	[0.25,0.75]	risk	skew	right	j
Ambiguity	9	1061	red	0.18	[0.25,0.75]	Ambiguous	skew	left	j
Ambiguity	10	1308	red	0.22	[0.25,0.75]	risk	skew	right	j
Ambiguity	11	1258	red	0.21	[0.25,0.75]	Ambiguous	skew	left	j
Ambiguity	12	979	red	0.22	[0.25,0.75]	risk	skew	right	j
Ambiguity	13	1075	red	0.23	[0.25,0.75]	risk	skew	right	j
Ambiguity	14	1242	red	0.24	[0.25,0.75]	risk	skew	right	j
Ambiguity	15	2965	red	0.5	[0,1]	risk	skew	left	f
Ambiguity	16	1195	red	0.38	[0,1]	risk	skew	right	j
Ambiguity	17	1056	red	0.23	[0,1]	risk	skew	right	j
Ambiguity	18	1048	red	0.01	[0,1]	risk	skew	left	f
Ambiguity	19	715	red	0	[0,1]	risk	skew	left	f
Ambiguity	20	994	red	0	[0,1]	risk	skew	left	f
Ambiguity	21	1064	red	0	[0,1]	risk	skew	right	j
Ambiguity	22	865	red	0	[0,1]	risk	skew	right	j
Ambiguity	23	769	red	0	[0,1]	risk	skew	left	f
Ambiguity	24	731	red	0	[0,1]	risk	skew	left	f
Ambiguity	25	988	red	0	[0,1]	risk	skew	right	j
Ambiguity	26	624	red	0	[0,1]	risk	skew	left	f
Ambiguity	27	693	red	0	[0,1]	risk	skew	left	f
Ambiguity	28	794	red	0	[0,1]	risk	skew	left	f
Ambiguity	29	620	red	0	[0,1]	risk	skew	right	j
Ambiguity	30	1001	green	0.5	[0.25,0.75]	risk	narrow	left	f
Ambiguity	31	997	green	0.4	[0.25,0.75]	risk	narrow	left	f
Ambiguity	32	765	green	0.26	[0.25,0.75]	risk	narrow	right	j
Ambiguity	33	876	green	0.03	[0.25,0.75]	risk	narrow	left	f
Ambiguity	34	640	green	0	[0.25,0.75]	risk	narrow	right	j
Ambiguity	35	1055	green	0	[0.25,0.75]	risk	narrow	left	f
Ambiguity	36	738	green	0	[0.25,0.75]	risk	narrow	right	j
Ambiguity	37	3974	green	0	[0.25,0.75]	Ambiguous	narrow	right	f
Ambiguity	38	1728	green	0.55	[0.25,0.75]	risk	narrow	right	j
Ambiguity	39	1316	green	0.28	[0.25,0.75]	risk	narrow	right	j
Ambiguity	40	1767	green	0	[0.25,0.75]	Ambiguous	narrow	left	j
Ambiguity	41	3384	green	0.22	[0.25,0.75]	risk	narrow	left	f
Ambiguity	42	2229	green	0.12	[0.25,0.75]	risk	narrow	right	j
Ambiguity	43	982	green	0	[0.25,0.75]	Ambiguous	narrow	left	j
Ambiguity	44	2740	green	0.1	[0.25,0.75]	Ambiguous	narrow	right	f
Ambiguity	45	3086	green	0.5	[0,1]	risk	narrow	right	j
Ambiguity	46	1210	green	0.38	[0,1]	risk	narrow	right	j
Ambiguity	47	1717	green	0.24	[0,1]	risk	narrow	left	f
Ambiguity	48	1494	green	0.02	[0,1]	risk	narrow	right	j
Ambiguity	49	3021	green	0	[0,1]	Ambiguous	narrow	left	j
Ambiguity	50	1171	green	0.15	[0,1]	risk	narrow	right	j
Ambiguity	51	1377	green	0.06	[0,1]	risk	narrow	right	j
Ambiguity	52	3050	green	0	[0,1]	risk	narrow	right	j
Ambiguity	53	983	green	0	[0,1]	risk	narrow	right	j
Ambiguity	54	3398	green	0	[0,1]	Ambiguous	narrow	left	j
Ambiguity	55	911	green	0.12	[0,1]	risk	narrow	right	j
Ambiguity	56	1445	green	0.06	[0,1]	risk	narrow	left	f
Ambiguity	57	2611	green	0	[0,1]	Ambiguous	narrow	left	j
Ambiguity	58	1006	green	0.03	[0,1]	risk	narrow	right	j
Ambiguity	59	1158	green	0	[0,1]	Ambiguous	narrow	left	j
Ambiguity	60	1081	blue	0.5	[0.25,0.75]	Ambiguous	wide	left	j
Ambiguity	61	2440	blue	0.6	[0.25,0.75]	Ambiguous	wide	left	j
Ambiguity	62	2202	blue	0.73	[0.25,0.75]	Ambiguous	wide	right	f
Ambiguity	63	1584	blue	0.93	[0.25,0.75]	risk	wide	left	f
Ambiguity	64	2516	blue	0.81	[0.25,0.75]	risk	wide	left	f
Ambiguity	65	1858	blue	0.65	[0.25,0.75]	Ambiguous	wide	left	j
Ambiguity	66	1647	blue	0.71	[0.25,0.75]	Ambiguous	wide	left	j
Ambiguity	67	1295	blue	0.85	[0.25,0.75]	risk	wide	right	j
Ambiguity	68	1881	blue	0.77	[0.25,0.75]	risk	wide	right	j
Ambiguity	69	1200	blue	0.69	[0.25,0.75]	Ambiguous	wide	right	f
Ambiguity	70	964	blue	0.71	[0.25,0.75]	Ambiguous	wide	right	f
Ambiguity	71	1063	blue	0.8	[0.25,0.75]	risk	wide	left	f
Ambiguity	72	1543	blue	0.74	[0.25,0.75]	Ambiguous	wide	left	j
Ambiguity	73	1210	blue	0.78	[0.25,0.75]	risk	wide	right	j
Ambiguity	74	1433	blue	0.77	[0.25,0.75]	risk	wide	left	f
Ambiguity	75	1052	blue	0.5	[0,1]	Ambiguous	wide	right	f
Ambiguity	76	892	blue	0.6	[0,1]	Ambiguous	wide	left	j
Ambiguity	77	927	blue	0.72	[0,1]	Ambiguous	wide	left	j
Ambiguity	78	1200	blue	0.96	[0,1]	Ambiguous	wide	right	f
Ambiguity	79	1718	blue	1	[0,1]	risk	wide	left	f
Ambiguity	80	1190	blue	0.81	[0,1]	Ambiguous	wide	right	f
Ambiguity	81	956	blue	0.88	[0,1]	Ambiguous	wide	left	j
Ambiguity	82	838	blue	0.98	[0,1]	Ambiguous	wide	left	j
Ambiguity	83	1181	blue	1	[0,1]	risk	wide	left	f
Ambiguity	84	1080	blue	0.92	[0,1]	Ambiguous	wide	left	j
Ambiguity	85	2770	blue	0.99	[0,1]	risk	wide	right	j
Ambiguity	86	2333	blue	0.97	[0,1]	risk	wide	right	j
Ambiguity	87	2993	blue	0.92	[0,1]	risk	wide	left	f
Ambiguity	88	2085	blue	0.85	[0,1]	Ambiguous	wide	left	j
Ambiguity	89	1581	blue	0.85	[0,1]	Ambiguous	wide	left	j
