Blocktype	tnum	rt	color	winprob	Amb	RL_feedback	choice	dist	side	response
Learning	1	963	green	0.5	[0,1]	lose	risk	norm	right	j
Learning	2	519	green	0.41	[0,1]	lose	risk	norm	right	j
Learning	3	616	green	0.26	[0,1]	lose	Amb	norm	right	f
Learning	4	712	green	0.34	[0,1]	lose	Amb	norm	left	j
Learning	5	702	green	0.45	[0,1]	lose	Amb	norm	left	j
Learning	6	596	green	0.59	[0,1]	lose	risk	norm	right	j
Learning	7	598	green	0.51	[0,1]	lose	risk	norm	left	f
Learning	8	550	green	0.39	[0,1]	lose	Amb	norm	left	j
Learning	9	882	green	0.42	[0,1]	lose	Amb	norm	left	j
Learning	10	714	green	0.53	[0,1]	lose	risk	norm	right	j
Learning	11	595	green	0.47	[0,1]	lose	Amb	norm	right	f
Learning	12	544	green	0.5	[0,1]	lose	risk	norm	right	j
Learning	13	563	green	0.5	[0,1]	lose	risk	norm	right	j
Learning	14	746	green	0.48	[0,1]	lose	risk	norm	left	f
Learning	15	992	green	0.46	[0,1]	lose	Amb	norm	right	f
Learning	1	604	blue	0.5	[0,1]	lose	risk	norm	left	f
Learning	2	674	blue	0.38	[0,1]	lose	risk	norm	left	f
Learning	3	770	blue	0.23	[0,1]	lose	risk	norm	right	j
Learning	4	853	blue	0	[0,1]	lose	Amb	norm	right	f
Learning	5	759	blue	0.08	[0,1]	lose	risk	norm	left	f
Learning	6	830	blue	0.02	[0,1]	lose	Amb	norm	right	f
Learning	7	533	blue	0.06	[0,1]	lose	Amb	norm	right	f
Learning	8	461	blue	0.08	[0,1]	lose	Amb	norm	right	f
Learning	9	910	blue	0.13	[0,1]	lose	risk	norm	left	f
Learning	10	543	blue	0.11	[0,1]	lose	Amb	norm	right	f
Learning	11	633	blue	0.13	[0,1]	lose	Amb	norm	right	f
Learning	12	558	blue	0.16	[0,1]	lose	Amb	norm	left	j
Learning	13	477	blue	0.17	[0,1]	lose	Amb	norm	left	j
Learning	14	594	blue	0.21	[0,1]	lose	Amb	norm	left	j
Learning	15	749	blue	0.3	[0,1]	lose	Amb	norm	right	f
Learning	1	904	blue	0.5	[0,1]	win	Amb	norm	right	f
Learning	2	967	blue	0.6	[0,1]	win	risk	norm	left	f
Learning	3	492	blue	0.55	[0,1]	win	risk	norm	right	j
Learning	4	699	blue	0.46	[0,1]	win	risk	norm	left	f
Learning	5	714	blue	0.33	[0,1]	win	Amb	norm	right	f
Learning	6	651	blue	0.39	[0,1]	win	Amb	norm	right	f
Learning	7	713	blue	0.45	[0,1]	win	Amb	norm	left	j
Learning	8	742	blue	0.6	[0,1]	win	Amb	norm	right	f
Learning	9	778	blue	0.79	[0,1]	win	risk	norm	right	j
Learning	10	462	blue	0.71	[0,1]	win	risk	norm	right	j
Learning	11	608	blue	0.55	[0,1]	win	Amb	norm	right	f
Learning	12	623	blue	0.62	[0,1]	win	risk	norm	right	j
Learning	13	686	blue	0.56	[0,1]	win	Amb	norm	right	f
Learning	14	612	blue	0.58	[0,1]	win	Amb	norm	left	j
Learning	15	734	blue	0.63	[0,1]	win	risk	norm	right	j
Learning	1	639	red	0.5	[0,1]	win	Amb	norm	right	f
Learning	2	787	red	0.6	[0,1]	win	Amb	norm	left	j
Learning	3	483	red	0.72	[0,1]	win	Amb	norm	right	f
Learning	4	507	red	0.94	[0,1]	win	risk	norm	right	j
Learning	5	519	red	0.82	[0,1]	win	risk	norm	right	j
Learning	6	1095	red	0.65	[0,1]	win	Amb	norm	left	j
Learning	7	703	red	0.75	[0,1]	win	risk	norm	right	j
Learning	8	677	red	0.71	[0,1]	win	risk	norm	right	j
Learning	9	734	red	0.66	[0,1]	win	Amb	norm	left	j
Learning	10	613	red	0.67	[0,1]	win	Amb	norm	left	j
Learning	11	618	red	0.72	[0,1]	win	risk	norm	right	j
Learning	12	666	red	0.69	[0,1]	win	Amb	norm	right	f
Learning	13	750	red	0.69	[0,1]	win	Amb	norm	left	j
Learning	14	637	red	0.72	[0,1]	win	risk	norm	left	f
Learning	15	550	red	0.7	[0,1]	win	risk	norm	right	j
Learning	1	856	green	0.5	[0,1]	win	risk	norm	left	f
Learning	2	702	green	0.4	[0,1]	win	risk	norm	right	j
Learning	3	839	green	0.23	[0,1]	win	Amb	norm	left	j
Learning	4	764	green	0.33	[0,1]	win	Amb	norm	right	f
Learning	5	1030	green	0.41	[0,1]	win	risk	norm	right	j
Learning	6	588	green	0.33	[0,1]	win	Amb	norm	right	f
Learning	7	572	green	0.35	[0,1]	win	Amb	norm	right	f
Learning	8	695	green	0.4	[0,1]	win	risk	norm	left	f
Learning	9	645	green	0.39	[0,1]	win	Amb	norm	left	j
Learning	10	780	green	0.42	[0,1]	win	risk	norm	right	j
Learning	11	625	green	0.4	[0,1]	win	Amb	norm	left	j
Learning	12	701	green	0.39	[0,1]	win	Amb	norm	right	f
Learning	13	748	green	0.39	[0,1]	win	Amb	norm	right	f
Learning	14	778	green	0.42	[0,1]	win	risk	norm	right	j
Learning	15	818	green	0.42	[0,1]	win	risk	norm	right	j
Learning	1	529	red	0.5	[0,1]	lose	risk	norm	right	j
Learning	2	670	red	0.38	[0,1]	lose	Amb	norm	right	f
Learning	3	533	red	0.42	[0,1]	lose	risk	norm	right	j
Learning	4	532	red	0.39	[0,1]	lose	risk	norm	left	f
Learning	5	950	red	0.33	[0,1]	lose	Amb	norm	right	f
Learning	6	690	red	0.32	[0,1]	lose	Amb	norm	right	f
Learning	7	679	red	0.32	[0,1]	lose	Amb	norm	right	f
Learning	8	848	red	0.33	[0,1]	lose	Amb	norm	left	j
Learning	9	543	red	0.36	[0,1]	lose	Amb	norm	left	j
Learning	10	489	red	0.42	[0,1]	lose	Amb	norm	left	j
Learning	11	465	red	0.57	[0,1]	lose	risk	norm	left	f
Learning	12	904	red	0.51	[0,1]	lose	risk	norm	right	j
Learning	13	554	red	0.39	[0,1]	lose	Amb	norm	left	j
Learning	14	710	red	0.42	[0,1]	lose	Amb	norm	right	f
Learning	15	660	red	0.52	[0,1]	lose	Amb	norm	left	j
