Blocktype	tnum	rt	color	winprob	Amb	choice	dist	side	response
Ambiguity	0	3129	red	0.5	[0.25,0.75]	risk	skew	right	j
Ambiguity	1	2564	red	0.41	[0.25,0.75]	Ambiguous	skew	right	f
Ambiguity	2	3640	red	0.45	[0.25,0.75]	risk	skew	left	f
Ambiguity	3	2215	red	0.41	[0.25,0.75]	Ambiguous	skew	left	j
Ambiguity	4	2423	red	0.41	[0.25,0.75]	risk	skew	right	j
Ambiguity	5	1501	red	0.41	[0.25,0.75]	risk	skew	right	j
Ambiguity	6	1264	red	0.38	[0.25,0.75]	Ambiguous	skew	left	j
Ambiguity	7	927	red	0.39	[0.25,0.75]	Ambiguous	skew	left	j
Ambiguity	8	3024	red	0.39	[0.25,0.75]	Ambiguous	skew	right	f
Ambiguity	9	1109	red	0.39	[0.25,0.75]	Ambiguous	skew	right	f
Ambiguity	10	1302	red	0.38	[0.25,0.75]	Ambiguous	skew	right	f
Ambiguity	11	724	red	0.38	[0.25,0.75]	Ambiguous	skew	right	f
Ambiguity	12	1630	red	0.44	[0.25,0.75]	risk	skew	left	f
Ambiguity	13	1375	red	0.43	[0.25,0.75]	Ambiguous	skew	right	f
Ambiguity	14	2990	red	0.43	[0.25,0.75]	risk	skew	right	j
Ambiguity	15	2640	red	0.5	[0,1]	risk	skew	right	j
Ambiguity	16	1748	red	0.39	[0,1]	Ambiguous	skew	left	j
Ambiguity	17	NA	red	0.45	[0,1]	Ambiguous	skew	left	
Ambiguity	18	1124	red	0.52	[0,1]	risk	skew	left	f
Ambiguity	19	816	red	0.48	[0,1]	Ambiguous	skew	left	j
Ambiguity	20	1296	red	0.52	[0,1]	risk	skew	right	j
Ambiguity	21	1253	red	0.51	[0,1]	risk	skew	right	j
Ambiguity	22	774	red	0.5	[0,1]	risk	skew	left	f
Ambiguity	23	1192	red	0.47	[0,1]	Ambiguous	skew	right	f
Ambiguity	24	1189	red	0.46	[0,1]	Ambiguous	skew	right	f
Ambiguity	25	1011	red	0.49	[0,1]	risk	skew	right	j
Ambiguity	26	1061	red	0.47	[0,1]	Ambiguous	skew	left	j
Ambiguity	27	1184	red	0.47	[0,1]	Ambiguous	skew	right	f
Ambiguity	28	1149	red	0.45	[0,1]	risk	skew	left	f
Ambiguity	29	1037	red	0.43	[0,1]	Ambiguous	skew	left	j
Ambiguity	30	1994	green	0.5	[0.25,0.75]	Ambiguous	narrow	right	f
Ambiguity	31	1540	green	0.58	[0.25,0.75]	risk	narrow	right	j
Ambiguity	32	793	green	0.53	[0.25,0.75]	risk	narrow	right	j
Ambiguity	33	960	green	0.45	[0.25,0.75]	risk	narrow	right	j
Ambiguity	34	823	green	0.33	[0.25,0.75]	Ambiguous	narrow	right	f
Ambiguity	35	1767	green	0.39	[0.25,0.75]	risk	narrow	left	f
Ambiguity	36	1312	green	0.37	[0.25,0.75]	risk	narrow	left	f
Ambiguity	37	1914	green	0.33	[0.25,0.75]	Ambiguous	narrow	left	j
Ambiguity	38	1477	green	0.37	[0.25,0.75]	Ambiguous	narrow	left	j
Ambiguity	39	927	green	0.41	[0.25,0.75]	risk	narrow	left	f
Ambiguity	40	1222	green	0.37	[0.25,0.75]	Ambiguous	narrow	left	j
Ambiguity	41	1411	green	0.38	[0.25,0.75]	Ambiguous	narrow	left	j
Ambiguity	42	770	green	0.39	[0.25,0.75]	risk	narrow	left	f
Ambiguity	43	1536	green	0.36	[0.25,0.75]	Ambiguous	narrow	left	j
Ambiguity	44	1244	green	0.37	[0.25,0.75]	Ambiguous	narrow	left	j
Ambiguity	45	1259	green	0.5	[0,1]	risk	narrow	right	j
Ambiguity	46	1307	green	0.4	[0,1]	risk	narrow	left	f
Ambiguity	47	1672	green	0.26	[0,1]	Ambiguous	narrow	right	f
Ambiguity	48	1260	green	0.34	[0,1]	Ambiguous	narrow	right	f
Ambiguity	49	1425	green	0.42	[0,1]	risk	narrow	right	j
Ambiguity	50	1165	green	0.36	[0,1]	Ambiguous	narrow	right	f
Ambiguity	51	1249	green	0.41	[0,1]	risk	narrow	left	f
Ambiguity	52	950	green	0.39	[0,1]	Ambiguous	narrow	right	f
Ambiguity	53	1342	green	0.4	[0,1]	risk	narrow	right	j
Ambiguity	54	855	green	0.4	[0,1]	Ambiguous	narrow	left	j
Ambiguity	55	1229	green	0.41	[0,1]	Ambiguous	narrow	right	f
Ambiguity	56	1119	green	0.39	[0,1]	Ambiguous	narrow	right	f
Ambiguity	57	1843	green	0.4	[0,1]	risk	narrow	right	j
Ambiguity	58	805	green	0.39	[0,1]	Ambiguous	narrow	right	f
Ambiguity	59	717	green	0.41	[0,1]	risk	narrow	left	f
Ambiguity	60	2098	blue	0.5	[0.25,0.75]	risk	wide	left	f
Ambiguity	61	918	blue	0.39	[0.25,0.75]	Ambiguous	wide	left	j
Ambiguity	62	1241	blue	0.42	[0.25,0.75]	Ambiguous	wide	right	f
Ambiguity	63	2396	blue	0.47	[0.25,0.75]	risk	wide	left	f
Ambiguity	64	1181	blue	0.43	[0.25,0.75]	risk	wide	left	f
Ambiguity	65	799	blue	0.35	[0.25,0.75]	Ambiguous	wide	left	j
Ambiguity	66	2320	blue	0.35	[0.25,0.75]	Ambiguous	wide	right	f
Ambiguity	67	1239	blue	0.41	[0.25,0.75]	Ambiguous	wide	right	f
Ambiguity	68	1349	blue	0.46	[0.25,0.75]	Ambiguous	wide	right	f
Ambiguity	69	1315	blue	0.54	[0.25,0.75]	risk	wide	right	j
Ambiguity	70	1218	blue	0.49	[0.25,0.75]	risk	wide	right	j
Ambiguity	71	1037	blue	0.43	[0.25,0.75]	Ambiguous	wide	right	f
Ambiguity	72	1316	blue	0.46	[0.25,0.75]	Ambiguous	wide	right	f
Ambiguity	73	1074	blue	0.5	[0.25,0.75]	Ambiguous	wide	right	f
Ambiguity	74	803	blue	0.57	[0.25,0.75]	risk	wide	right	j
Ambiguity	75	1853	blue	0.5	[0,1]	Ambiguous	wide	right	f
Ambiguity	76	1673	blue	0.57	[0,1]	risk	wide	left	f
Ambiguity	77	1385	blue	0.53	[0,1]	Ambiguous	wide	left	j
Ambiguity	78	1464	blue	0.54	[0,1]	risk	wide	right	j
Ambiguity	79	1030	blue	0.53	[0,1]	Ambiguous	wide	left	j
Ambiguity	80	1232	blue	0.51	[0,1]	risk	wide	left	f
Ambiguity	81	892	blue	0.5	[0,1]	risk	wide	left	f
Ambiguity	82	1185	blue	0.49	[0,1]	Ambiguous	wide	right	f
Ambiguity	83	1194	blue	0.5	[0,1]	risk	wide	left	f
Ambiguity	84	781	blue	0.49	[0,1]	Ambiguous	wide	left	j
Ambiguity	85	883	blue	0.49	[0,1]	Ambiguous	wide	left	j
Ambiguity	86	1108	blue	0.49	[0,1]	Ambiguous	wide	right	f
Ambiguity	87	1261	blue	0.51	[0,1]	Ambiguous	wide	left	j
Ambiguity	88	2146	blue	0.51	[0,1]	risk	wide	left	f
Ambiguity	89	1264	blue	0.51	[0,1]	risk	wide	right	j
